"_prepare","background","bidi","canvas_backend","clock_backend","color_backend","compensation","confidence_immediate","coordinates","count_TA_sequence_setting","count_TP_sequence_setting","count_admin_check","count_check_TA","count_check_TP","count_check_confidence_imm","count_check_identification","count_check_made_identification","count_check_multiple_identification","count_check_proceeding_identification","count_confidence_imm","count_end_of_experiment","count_experiment","count_gender_lineup_loop","count_gender_randomization_sequence","count_identification_task","count_instructions_after_multiple","count_instructions_after_proceed_identification","count_instructions_before_view","count_lineup_loop","count_lineup_procedure_loop","count_lineup_procedure_sequence","count_lineup_sequence","count_logger","count_made_identification","count_member_randomization_loop","count_member_randomization_sequence","count_multiple_identification","count_proceed_identification","count_repeat_lineup_sequence_identification","count_repeat_lineup_sequence_multiple","count_target_setting","count_target_setting_loop","count_target_setting_sequence","count_video","datetime","description","disable_garbage_collection","empty_column","experiment_file","experiment_path","font_bold","font_family","font_italic","font_size","font_underline","foreground","form_clicks","fullscreen","gender","height","identification","identification_made","identification_multiple","identification_proceed","keyboard_backend","live_row","live_row_target_setting_loop","logfile","member","member1","member2","member3","member4","member5","member6","mouse_backend","opensesame_codename","opensesame_version","repeat_cycle","round_decimals","sampler_backend","sound_buf_size","sound_channels","sound_freq","sound_sample_size","start","subject_nr","subject_parity","synth_backend","target","target1","target2","time_TA_sequence_setting","time_TP_sequence_setting","time_admin_check","time_check_TA","time_check_TP","time_check_confidence_imm","time_check_identification","time_check_made_identification","time_check_multiple_identification","time_check_proceeding_identification","time_confidence_imm","time_end_of_experiment","time_experiment","time_gender_lineup_loop","time_gender_randomization_sequence","time_identification_task","time_instructions_after_multiple","time_instructions_after_proceed_identification","time_instructions_before_view","time_lineup_loop","time_lineup_procedure_loop","time_lineup_procedure_sequence","time_lineup_sequence","time_logger","time_made_identification","time_member_randomization_loop","time_member_randomization_sequence","time_multiple_identification","time_proceed_identification","time_repeat_lineup_sequence_identification","time_repeat_lineup_sequence_multiple","time_target_setting","time_target_setting_loop","time_target_setting_sequence","time_video","title","transparent_variables","trial","uniform_coordinates","width"
"","white","no","xpyriment","legacy","legacy","0","NA","relative","NA","NA","NA","NA","NA","NA","NA","NA","NA","NA","NA","0","0","0","NA","NA","NA","NA","NA","NA","NA","NA","NA","1","NA","NA","NA","NA","NA","NA","NA","0","0","0","NA","03/21/18 14:59:21","Executes Python code","yes","","lineup_videoVIPER_W.osexp","C:/Users/standalone/Desktop/H&S 21 Mar 1.25","no","mono","no","24","no","black","no","yes","NA","768","NA","NA","NA","NA","legacy","0","0","C:/Users/standalone/Desktop/H&S 21 Mar 1.25/subject-100.csv","NA","NA","NA","NA","NA","NA","NA","xpyriment","Jazzy James","3.1.6","0","2","legacy","1024","2","48000","-16","experiment","100","even","legacy","NA","absent","present","NA","NA","NA","NA","NA","NA","NA","NA","NA","NA","NA","NA","2454","NA","NA","NA","NA","NA","NA","NA","NA","NA","NA","2456","NA","NA","NA","NA","NA","NA","NA","2455","2454","2455","NA","lineup1","no","NA","no","1366"
"","white","no","xpyriment","legacy","legacy","0","NA","relative","1","1","NA","1","1","NA","NA","NA","NA","NA","NA","0","0","0","0","NA","NA","NA","NA","NA","0","NA","NA","3","NA","0","1","NA","NA","NA","NA","0","0","0","NA","03/21/18 14:59:21","Executes Python code","yes","","lineup_videoVIPER_W.osexp","C:/Users/standalone/Desktop/H&S 21 Mar 1.25","no","mono","no","24","no","black","no","yes","female","768","NA","NA","NA","NA","legacy","0","0","C:/Users/standalone/Desktop/H&S 21 Mar 1.25/subject-100.csv","NA","5","4","1","3","6","2","xpyriment","Jazzy James","3.1.6","0","2","legacy","1024","2","48000","-16","experiment","100","even","legacy","[target2]","absent","present","NA","2563","NA","NA","2563","NA","NA","NA","NA","NA","NA","NA","2454","2555","2559","NA","NA","NA","NA","NA","NA","NA","NA","2563","NA","2559","2563","NA","NA","NA","NA","2455","2454","2455","NA","lineup1","no","NA","no","1366"
"","white","no","xpyriment","legacy","legacy","0","NA","relative","1","1","NA","1","1","NA","NA","NA","NA","NA","NA","0","0","0","0","NA","NA","NA","NA","NA","0","NA","NA","3","NA","0","1","NA","NA","NA","NA","0","0","0","NA","03/21/18 14:59:21","Executes Python code","yes","","lineup_videoVIPER_W.osexp","C:/Users/standalone/Desktop/H&S 21 Mar 1.25","no","mono","no","24","no","black","no","yes","female","768","NA","NA","NA","NA","legacy","0","0","C:/Users/standalone/Desktop/H&S 21 Mar 1.25/subject-100.csv","NA","5","4","1","3","6","2","xpyriment","Jazzy James","3.1.6","0","2","legacy","1024","2","48000","-16","experiment","100","even","legacy","[target2]","absent","present","NA","2563","NA","NA","2563","NA","NA","NA","NA","NA","NA","NA","2454","2555","2559","NA","NA","NA","NA","NA","NA","NA","NA","2615","NA","2559","2563","NA","NA","NA","NA","2455","2454","2455","NA","lineup1","no","NA","no","1366"
"","white","no","xpyriment","legacy","legacy","0","no","relative","1","1","0","1","1","0","0","0","0","0","0","0","0","0","0","0","0","0","0","0","0","0","0","5","0","0","1","0","0","0","0","0","0","0","0","03/21/18 14:59:21","Executes Python code","yes","","lineup_videoVIPER_W.osexp","C:/Users/standalone/Desktop/H&S 21 Mar 1.25","no","mono","no","24","no","black","no","yes","female","768","No","no","no","no","legacy","0","0","C:/Users/standalone/Desktop/H&S 21 Mar 1.25/subject-100.csv","[member1]","5","4","1","3","6","2","xpyriment","Jazzy James","3.1.6","0","2","legacy","1024","2","48000","-16","experiment","100","even","legacy","[target2]","absent","present","NA","2563","NA","NA","2563","NA","26168","NA","NA","NA","NA","NA","2454","2555","2559","22407","NA","NA","3031","2677","2646","2677","3031","26168","NA","2559","2563","NA","NA","NA","NA","2455","2454","2455","6774","lineup1","no","1","no","1366"
"","white","no","xpyriment","legacy","legacy","0","no","relative","1","1","0","1","1","1","1","0","0","0","1","0","0","0","0","1","0","0","1","0","0","0","1","6","0","0","1","0","0","0","0","0","0","0","1","03/21/18 14:59:21","Executes Python code","yes","","lineup_videoVIPER_W.osexp","C:/Users/standalone/Desktop/H&S 21 Mar 1.25","no","mono","no","24","no","black","no","yes","female","768","No","no","no","no","legacy","1","0","C:/Users/standalone/Desktop/H&S 21 Mar 1.25/subject-100.csv","[member2]","5","4","1","3","6","2","xpyriment","Jazzy James","3.1.6","0","2","legacy","1024","2","48000","-16","experiment","100","even","legacy","[target2]","absent","present","NA","2563","NA","NA","2563","NA","41354","NA","NA","NA","NA","NA","2454","2555","2559","38785","NA","NA","3031","2677","2646","2677","26431","41354","NA","2559","2563","NA","NA","NA","NA","2455","2454","2455","26432","lineup1","no","2","no","1366"
"","white","no","xpyriment","legacy","legacy","0","no","relative","1","1","0","1","1","2","2","0","0","0","2","0","0","0","0","2","0","0","2","0","0","0","2","7","0","0","1","0","0","0","0","0","0","0","2","03/21/18 14:59:21","Executes Python code","yes","","lineup_videoVIPER_W.osexp","C:/Users/standalone/Desktop/H&S 21 Mar 1.25","no","mono","no","24","no","black","no","yes","female","768","No","no","no","no","legacy","2","0","C:/Users/standalone/Desktop/H&S 21 Mar 1.25/subject-100.csv","[member3]","5","4","1","3","6","2","xpyriment","Jazzy James","3.1.6","0","2","legacy","1024","2","48000","-16","experiment","100","even","legacy","[target2]","absent","present","NA","2563","NA","NA","2563","NA","45184","NA","NA","NA","NA","NA","2454","2555","2559","42734","NA","NA","3031","2677","2646","2677","41621","45184","NA","2559","2563","NA","NA","NA","NA","2455","2454","2455","41621","lineup1","no","3","no","1366"
"","white","no","xpyriment","legacy","legacy","0","no","relative","1","1","0","1","1","3","3","0","0","0","3","0","0","0","0","3","0","0","3","0","0","0","3","8","0","0","1","0","0","0","0","0","0","0","3","03/21/18 14:59:21","Executes Python code","yes","","lineup_videoVIPER_W.osexp","C:/Users/standalone/Desktop/H&S 21 Mar 1.25","no","mono","no","24","no","black","no","yes","female","768","No","no","no","no","legacy","3","0","C:/Users/standalone/Desktop/H&S 21 Mar 1.25/subject-100.csv","[member4]","5","4","1","3","6","2","xpyriment","Jazzy James","3.1.6","0","2","legacy","1024","2","48000","-16","experiment","100","even","legacy","[target2]","absent","present","NA","2563","NA","NA","2563","NA","52953","NA","NA","NA","NA","NA","2454","2555","2559","50395","NA","NA","3031","2677","2646","2677","45454","52953","NA","2559","2563","NA","NA","NA","NA","2455","2454","2455","45454","lineup1","no","4","no","1366"
"","white","no","xpyriment","legacy","legacy","0","no","relative","1","1","0","1","1","4","4","0","0","0","4","0","0","0","0","4","0","0","4","0","0","0","4","9","0","0","1","0","0","0","0","0","0","0","4","03/21/18 14:59:21","Executes Python code","yes","","lineup_videoVIPER_W.osexp","C:/Users/standalone/Desktop/H&S 21 Mar 1.25","no","mono","no","24","no","black","no","yes","female","768","Not sure","no","no","no","legacy","4","0","C:/Users/standalone/Desktop/H&S 21 Mar 1.25/subject-100.csv","[member5]","5","4","1","3","6","2","xpyriment","Jazzy James","3.1.6","0","2","legacy","1024","2","48000","-16","experiment","100","even","legacy","[target2]","absent","present","NA","2563","NA","NA","2563","NA","66161","NA","NA","NA","NA","NA","2454","2555","2559","60745","NA","NA","3031","2677","2646","2677","53239","66161","NA","2559","2563","NA","NA","NA","NA","2455","2454","2455","53239","lineup1","no","5","no","1366"
"","white","no","xpyriment","legacy","legacy","0","no","relative","1","1","0","1","1","5","5","0","0","0","5","0","0","0","0","5","0","0","5","0","0","0","5","10","0","0","1","0","0","0","0","0","0","0","5","03/21/18 14:59:21","Executes Python code","yes","","lineup_videoVIPER_W.osexp","C:/Users/standalone/Desktop/H&S 21 Mar 1.25","no","mono","no","24","no","black","no","yes","female","768","No","no","no","no","legacy","5","0","C:/Users/standalone/Desktop/H&S 21 Mar 1.25/subject-100.csv","[member6]","5","4","1","3","6","2","xpyriment","Jazzy James","3.1.6","0","2","legacy","1024","2","48000","-16","experiment","100","even","legacy","[target2]","absent","present","NA","2563","NA","NA","2563","NA","69747","NA","NA","NA","NA","NA","2454","2555","2559","67706","NA","NA","3031","2677","2646","2677","66439","69747","NA","2559","2563","NA","NA","NA","NA","2455","2454","2455","66440","lineup1","no","6","no","1366"
"","white","no","xpyriment","legacy","legacy","0","no","relative","1","1","0","1","1","5","5","0","0","0","5","0","0","0","0","5","0","0","5","0","0","0","5","10","0","0","1","0","0","0","0","0","0","0","5","03/21/18 14:59:21","Executes Python code","yes","","lineup_videoVIPER_W.osexp","C:/Users/standalone/Desktop/H&S 21 Mar 1.25","no","mono","no","24","no","black","no","yes","female","768","No","No","no","No","legacy","5","0","C:/Users/standalone/Desktop/H&S 21 Mar 1.25/subject-100.csv","[member6]","5","4","1","3","6","2","xpyriment","Jazzy James","3.1.6","0","2","legacy","1024","2","48000","-16","experiment","100","even","legacy","[target2]","absent","present","NA","2563","79151","NA","2563","NA","69747","79151","NA","89930","NA","NA","2454","2555","2559","67706","NA","NA","3031","2677","2646","2677","66439","89930","69791","2559","2563","NA","85138","NA","NA","2455","2454","2455","66440","lineup1","no","6","no","1366"
"","white","no","xpyriment","legacy","legacy","0","no","relative","2","2","0","2","2","5","5","0","0","0","5","0","0","0","1","5","0","0","5","0","1","0","5","11","0","1","2","0","0","0","0","0","0","0","5","03/21/18 14:59:21","Executes Python code","yes","","lineup_videoVIPER_W.osexp","C:/Users/standalone/Desktop/H&S 21 Mar 1.25","no","mono","no","24","no","black","no","yes","male","768","No","No","no","No","legacy","0","0","C:/Users/standalone/Desktop/H&S 21 Mar 1.25/subject-100.csv","[member6]","3","5","7","2","4","1","xpyriment","Jazzy James","3.1.6","0","2","legacy","1024","2","48000","-16","experiment","100","even","legacy","[target1]","absent","present","89998","2563","79151","89998","2563","NA","69747","79151","NA","89930","NA","NA","2454","2555","89995","67706","NA","NA","3031","2677","2646","2677","66439","89998","69791","89995","89998","NA","85138","NA","NA","2455","2454","2455","66440","lineup1","no","6","no","1366"
"","white","no","xpyriment","legacy","legacy","0","no","relative","2","2","1","2","2","6","6","1","1","1","6","0","0","0","1","6","1","1","6","1","1","1","6","13","1","1","2","1","1","1","1","0","0","0","6","03/21/18 14:59:21","Executes Python code","yes","","lineup_videoVIPER_W.osexp","C:/Users/standalone/Desktop/H&S 21 Mar 1.25","no","mono","no","24","no","black","no","yes","male","768","No","no","no","no","legacy","0","0","C:/Users/standalone/Desktop/H&S 21 Mar 1.25/subject-100.csv","[member1]","3","5","7","2","4","1","xpyriment","Jazzy James","3.1.6","0","2","legacy","1024","2","48000","-16","experiment","100","even","legacy","[target1]","absent","present","89998","2563","79151","89998","2563","NA","100315","79151","NA","89930","NA","NA","2454","2555","89995","97823","NA","NA","90295","90069","90038","90069","90295","100315","69791","89995","89998","NA","85138","NA","NA","2455","2454","2455","94855","lineup1","no","1","no","1366"
"","white","no","xpyriment","legacy","legacy","0","40","relative","2","2","1","2","2","7","7","1","1","1","7","0","0","0","1","7","1","1","7","1","1","1","7","14","1","1","2","1","1","1","1","0","0","0","7","03/21/18 14:59:21","Executes Python code","yes","","lineup_videoVIPER_W.osexp","C:/Users/standalone/Desktop/H&S 21 Mar 1.25","no","mono","no","24","no","black","no","yes","male","768","Yes","no","no","no","legacy","1","0","C:/Users/standalone/Desktop/H&S 21 Mar 1.25/subject-100.csv","[member2]","3","5","7","2","4","1","xpyriment","Jazzy James","3.1.6","0","2","legacy","1024","2","48000","-16","experiment","100","even","legacy","[target1]","absent","present","89998","2563","79151","89998","2563","112360","107360","79151","NA","89930","107360","NA","2454","2555","89995","104382","NA","NA","90295","90069","90038","90069","100591","112360","69791","89995","89998","NA","85138","NA","NA","2455","2454","2455","100591","lineup1","no","2","no","1366"
"","white","no","xpyriment","legacy","legacy","0","no","relative","2","2","1","2","2","8","8","1","1","1","8","0","0","0","1","8","1","1","8","1","1","1","8","15","1","1","2","1","1","1","1","0","0","0","8","03/21/18 14:59:21","Executes Python code","yes","","lineup_videoVIPER_W.osexp","C:/Users/standalone/Desktop/H&S 21 Mar 1.25","no","mono","no","24","no","black","no","yes","male","768","No","no","no","no","legacy","2","0","C:/Users/standalone/Desktop/H&S 21 Mar 1.25/subject-100.csv","[member3]","3","5","7","2","4","1","xpyriment","Jazzy James","3.1.6","0","2","legacy","1024","2","48000","-16","experiment","100","even","legacy","[target1]","absent","present","89998","2563","79151","89998","2563","112360","115807","79151","NA","89930","107360","NA","2454","2555","89995","113773","NA","NA","90295","90069","90038","90069","112631","115807","69791","89995","89998","NA","85138","NA","NA","2455","2454","2455","112631","lineup1","no","3","no","1366"
"","white","no","xpyriment","legacy","legacy","0","no","relative","2","2","1","2","2","9","9","1","1","1","9","0","0","0","1","9","1","1","9","1","1","1","9","16","1","1","2","1","1","1","1","0","0","0","9","03/21/18 14:59:21","Executes Python code","yes","","lineup_videoVIPER_W.osexp","C:/Users/standalone/Desktop/H&S 21 Mar 1.25","no","mono","no","24","no","black","no","yes","male","768","No","no","no","no","legacy","3","0","C:/Users/standalone/Desktop/H&S 21 Mar 1.25/subject-100.csv","[member4]","3","5","7","2","4","1","xpyriment","Jazzy James","3.1.6","0","2","legacy","1024","2","48000","-16","experiment","100","even","legacy","[target1]","absent","present","89998","2563","79151","89998","2563","112360","119075","79151","NA","89930","107360","NA","2454","2555","89995","117038","NA","NA","90295","90069","90038","90069","116097","119075","69791","89995","89998","NA","85138","NA","NA","2455","2454","2455","116097","lineup1","no","4","no","1366"
"","white","no","xpyriment","legacy","legacy","0","no","relative","2","2","1","2","2","10","10","1","1","1","10","0","0","0","1","10","1","1","10","1","1","1","10","17","1","1","2","1","1","1","1","0","0","0","10","03/21/18 14:59:21","Executes Python code","yes","","lineup_videoVIPER_W.osexp","C:/Users/standalone/Desktop/H&S 21 Mar 1.25","no","mono","no","24","no","black","no","yes","male","768","Not sure","no","no","no","legacy","4","0","C:/Users/standalone/Desktop/H&S 21 Mar 1.25/subject-100.csv","[member5]","3","5","7","2","4","1","xpyriment","Jazzy James","3.1.6","0","2","legacy","1024","2","48000","-16","experiment","100","even","legacy","[target1]","absent","present","89998","2563","79151","89998","2563","112360","124328","79151","NA","89930","107360","NA","2454","2555","89995","121846","NA","NA","90295","90069","90038","90069","119365","124328","69791","89995","89998","NA","85138","NA","NA","2455","2454","2455","119365","lineup1","no","5","no","1366"
"","white","no","xpyriment","legacy","legacy","0","no","relative","2","2","1","2","2","11","11","1","1","1","11","0","0","0","1","11","1","1","11","1","1","1","11","18","1","1","2","1","1","1","1","0","0","0","11","03/21/18 14:59:21","Executes Python code","yes","","lineup_videoVIPER_W.osexp","C:/Users/standalone/Desktop/H&S 21 Mar 1.25","no","mono","no","24","no","black","no","yes","male","768","No","no","no","no","legacy","5","0","C:/Users/standalone/Desktop/H&S 21 Mar 1.25/subject-100.csv","[member6]","3","5","7","2","4","1","xpyriment","Jazzy James","3.1.6","0","2","legacy","1024","2","48000","-16","experiment","100","even","legacy","[target1]","absent","present","89998","2563","79151","89998","2563","112360","129001","79151","NA","89930","107360","NA","2454","2555","89995","126717","NA","NA","90295","90069","90038","90069","124610","129001","69791","89995","89998","NA","85138","NA","NA","2455","2454","2455","124611","lineup1","no","6","no","1366"
"","white","no","xpyriment","legacy","legacy","0","no","relative","2","2","1","2","2","11","11","1","1","1","11","0","0","0","1","11","1","1","11","1","1","1","11","18","1","1","2","1","1","1","1","0","0","0","11","03/21/18 14:59:21","Executes Python code","yes","","lineup_videoVIPER_W.osexp","C:/Users/standalone/Desktop/H&S 21 Mar 1.25","no","mono","no","24","no","black","no","yes","male","768","No","Yes","One","No","legacy","5","0","C:/Users/standalone/Desktop/H&S 21 Mar 1.25/subject-100.csv","[member6]","3","5","7","2","4","1","xpyriment","Jazzy James","3.1.6","0","2","legacy","1024","2","48000","-16","experiment","100","even","legacy","[target1]","absent","present","89998","2563","135834","89998","2563","112360","129001","131995","135834","144019","107360","NA","2454","2555","89995","126717","NA","NA","90295","90069","90038","90069","124610","144019","129040","89995","89998","131995","137529","NA","NA","2455","2454","2455","124611","lineup1","no","6","no","1366"
"","white","no","xpyriment","legacy","legacy","0","no","relative","2","2","1","2","2","11","11","1","1","1","11","0","0","0","1","11","1","1","11","1","1","1","11","18","1","1","2","1","1","1","1","0","0","0","11","03/21/18 14:59:21","Executes Python code","yes","","lineup_videoVIPER_W.osexp","C:/Users/standalone/Desktop/H&S 21 Mar 1.25","no","mono","no","24","no","black","no","yes","male","768","No","Yes","One","No","legacy","5","0","C:/Users/standalone/Desktop/H&S 21 Mar 1.25/subject-100.csv","[member6]","3","5","7","2","4","1","xpyriment","Jazzy James","3.1.6","0","2","legacy","1024","2","48000","-16","experiment","100","even","legacy","[target1]","absent","present","89998","2563","135834","89998","2563","112360","129001","131995","135834","144019","107360","144100","2454","2555","89995","126717","NA","NA","90295","90069","90038","90069","124610","145461","129040","89995","89998","131995","137529","NA","NA","2455","2454","2455","124611","lineup1","no","6","no","1366"
