"_prepare","background","bidi","canvas_backend","clock_backend","color_backend","compensation","confidence_immediate","coordinates","count_TA_sequence_setting","count_TP_sequence_setting","count_admin_check","count_check_TA","count_check_TP","count_check_confidence_imm","count_check_identification","count_check_made_identification","count_check_multiple_identification","count_check_proceeding_identification","count_confidence_imm","count_end_of_experiment","count_experiment","count_gender_lineup_loop","count_gender_randomization_sequence","count_identification_task","count_instructions_after_multiple","count_instructions_after_proceed_identification","count_instructions_before_view","count_lineup_loop","count_lineup_procedure_loop","count_lineup_procedure_sequence","count_lineup_sequence","count_logger","count_made_identification","count_member_randomization_loop","count_member_randomization_sequence","count_multiple_identification","count_proceed_identification","count_repeat_lineup_sequence_identification","count_repeat_lineup_sequence_multiple","count_target_setting","count_target_setting_loop","count_target_setting_sequence","count_video","datetime","description","disable_garbage_collection","empty_column","experiment_file","experiment_path","font_bold","font_family","font_italic","font_size","font_underline","foreground","form_clicks","fullscreen","gender","height","identification","identification_made","identification_multiple","identification_proceed","keyboard_backend","live_row","live_row_target_setting_loop","logfile","member","member1","member2","member3","member4","member5","member6","mouse_backend","opensesame_codename","opensesame_version","repeat_cycle","round_decimals","sampler_backend","sound_buf_size","sound_channels","sound_freq","sound_sample_size","start","subject_nr","subject_parity","synth_backend","target","target1","target2","time_TA_sequence_setting","time_TP_sequence_setting","time_admin_check","time_check_TA","time_check_TP","time_check_confidence_imm","time_check_identification","time_check_made_identification","time_check_multiple_identification","time_check_proceeding_identification","time_confidence_imm","time_end_of_experiment","time_experiment","time_gender_lineup_loop","time_gender_randomization_sequence","time_identification_task","time_instructions_after_multiple","time_instructions_after_proceed_identification","time_instructions_before_view","time_lineup_loop","time_lineup_procedure_loop","time_lineup_procedure_sequence","time_lineup_sequence","time_logger","time_made_identification","time_member_randomization_loop","time_member_randomization_sequence","time_multiple_identification","time_proceed_identification","time_repeat_lineup_sequence_identification","time_repeat_lineup_sequence_multiple","time_target_setting","time_target_setting_loop","time_target_setting_sequence","time_video","title","transparent_variables","trial","uniform_coordinates","width"
"","white","no","xpyriment","legacy","legacy","0","NA","relative","NA","NA","NA","NA","NA","NA","NA","NA","NA","NA","NA","0","0","0","NA","NA","NA","NA","NA","NA","NA","NA","NA","1","NA","NA","NA","NA","NA","NA","NA","0","0","0","NA","03/21/18 15:18:04","Executes Python code","yes","","lineup_videoVIPER_W.osexp","C:/Users/standalone/Desktop/H&S 21 Mar 1.25","no","mono","no","24","no","black","no","yes","NA","768","NA","NA","NA","NA","legacy","0","0","C:/Users/standalone/Desktop/H&S 21 Mar 1.25/subject-103.csv","NA","NA","NA","NA","NA","NA","NA","xpyriment","Jazzy James","3.1.6","0","2","legacy","1024","2","48000","-16","experiment","103","odd","legacy","NA","present","absent","NA","NA","NA","NA","NA","NA","NA","NA","NA","NA","NA","NA","2503","NA","NA","NA","NA","NA","NA","NA","NA","NA","NA","2504","NA","NA","NA","NA","NA","NA","NA","2504","2503","2504","NA","lineup1","no","NA","no","1366"
"","white","no","xpyriment","legacy","legacy","0","NA","relative","0","0","NA","0","0","NA","NA","NA","NA","NA","NA","0","0","0","0","NA","NA","NA","NA","NA","0","NA","NA","2","NA","0","0","NA","NA","NA","NA","0","0","0","NA","03/21/18 15:18:04","Executes Python code","yes","","lineup_videoVIPER_W.osexp","C:/Users/standalone/Desktop/H&S 21 Mar 1.25","no","mono","no","24","no","black","no","yes","male","768","NA","NA","NA","NA","legacy","0","0","C:/Users/standalone/Desktop/H&S 21 Mar 1.25/subject-103.csv","NA","1","4","2","3","6","5","xpyriment","Jazzy James","3.1.6","0","2","legacy","1024","2","48000","-16","experiment","103","odd","legacy","[target1]","present","absent","NA","2565","NA","NA","2565","NA","NA","NA","NA","NA","NA","NA","2503","2560","2563","NA","NA","NA","NA","NA","NA","NA","NA","2565","NA","2563","2565","NA","NA","NA","NA","2504","2503","2504","NA","lineup1","no","NA","no","1366"
"","white","no","xpyriment","legacy","legacy","0","no","relative","0","0","0","0","0","0","0","0","0","0","0","0","0","0","0","0","0","0","0","0","0","0","0","4","0","0","0","0","0","0","0","0","0","0","0","03/21/18 15:18:04","Executes Python code","yes","","lineup_videoVIPER_W.osexp","C:/Users/standalone/Desktop/H&S 21 Mar 1.25","no","mono","no","24","no","black","no","yes","male","768","No","no","no","no","legacy","0","0","C:/Users/standalone/Desktop/H&S 21 Mar 1.25/subject-103.csv","[member1]","1","4","2","3","6","5","xpyriment","Jazzy James","3.1.6","0","2","legacy","1024","2","48000","-16","experiment","103","odd","legacy","[target1]","present","absent","NA","2565","NA","NA","2565","NA","40474","NA","NA","NA","NA","NA","2503","2560","2563","37466","NA","NA","3010","2641","2611","2641","3010","40475","NA","2563","2565","NA","NA","NA","NA","2504","2503","2504","29314","lineup1","no","1","no","1366"
"","white","no","xpyriment","legacy","legacy","0","no","relative","0","0","0","0","0","1","1","0","0","0","1","0","0","0","0","1","0","0","1","0","0","0","1","5","0","0","0","0","0","0","0","0","0","0","1","03/21/18 15:18:04","Executes Python code","yes","","lineup_videoVIPER_W.osexp","C:/Users/standalone/Desktop/H&S 21 Mar 1.25","no","mono","no","24","no","black","no","yes","male","768","No","no","no","no","legacy","1","0","C:/Users/standalone/Desktop/H&S 21 Mar 1.25/subject-103.csv","[member2]","1","4","2","3","6","5","xpyriment","Jazzy James","3.1.6","0","2","legacy","1024","2","48000","-16","experiment","103","odd","legacy","[target1]","present","absent","NA","2565","NA","NA","2565","NA","46385","NA","NA","NA","NA","NA","2503","2560","2563","43224","NA","NA","3010","2641","2611","2641","40737","46386","NA","2563","2565","NA","NA","NA","NA","2504","2503","2504","40737","lineup1","no","2","no","1366"
"","white","no","xpyriment","legacy","legacy","0","no","relative","0","0","0","0","0","2","2","0","0","0","2","0","0","0","0","2","0","0","2","0","0","0","2","6","0","0","0","0","0","0","0","0","0","0","2","03/21/18 15:18:04","Executes Python code","yes","","lineup_videoVIPER_W.osexp","C:/Users/standalone/Desktop/H&S 21 Mar 1.25","no","mono","no","24","no","black","no","yes","male","768","No","no","no","no","legacy","2","0","C:/Users/standalone/Desktop/H&S 21 Mar 1.25/subject-103.csv","[member3]","1","4","2","3","6","5","xpyriment","Jazzy James","3.1.6","0","2","legacy","1024","2","48000","-16","experiment","103","odd","legacy","[target1]","present","absent","NA","2565","NA","NA","2565","NA","51174","NA","NA","NA","NA","NA","2503","2560","2563","48264","NA","NA","3010","2641","2611","2641","46656","51174","NA","2563","2565","NA","NA","NA","NA","2504","2503","2504","46656","lineup1","no","3","no","1366"
"","white","no","xpyriment","legacy","legacy","0","no","relative","0","0","0","0","0","3","3","0","0","0","3","0","0","0","0","3","0","0","3","0","0","0","3","7","0","0","0","0","0","0","0","0","0","0","3","03/21/18 15:18:04","Executes Python code","yes","","lineup_videoVIPER_W.osexp","C:/Users/standalone/Desktop/H&S 21 Mar 1.25","no","mono","no","24","no","black","no","yes","male","768","Not sure","no","no","no","legacy","3","0","C:/Users/standalone/Desktop/H&S 21 Mar 1.25/subject-103.csv","[member4]","1","4","2","3","6","5","xpyriment","Jazzy James","3.1.6","0","2","legacy","1024","2","48000","-16","experiment","103","odd","legacy","[target1]","present","absent","NA","2565","NA","NA","2565","NA","56228","NA","NA","NA","NA","NA","2503","2560","2563","53103","NA","NA","3010","2641","2611","2641","51441","56228","NA","2563","2565","NA","NA","NA","NA","2504","2503","2504","51441","lineup1","no","4","no","1366"
"","white","no","xpyriment","legacy","legacy","0","60","relative","0","0","0","0","0","4","4","0","0","0","4","0","0","0","0","4","0","0","4","0","0","0","4","8","0","0","0","0","0","0","0","0","0","0","4","03/21/18 15:18:04","Executes Python code","yes","","lineup_videoVIPER_W.osexp","C:/Users/standalone/Desktop/H&S 21 Mar 1.25","no","mono","no","24","no","black","no","yes","male","768","Yes","no","no","no","legacy","4","0","C:/Users/standalone/Desktop/H&S 21 Mar 1.25/subject-103.csv","[member5]","1","4","2","3","6","5","xpyriment","Jazzy James","3.1.6","0","2","legacy","1024","2","48000","-16","experiment","103","odd","legacy","[target1]","present","absent","NA","2565","NA","NA","2565","70632","62332","NA","NA","NA","62332","NA","2503","2560","2563","57983","NA","NA","3010","2641","2611","2641","56508","70632","NA","2563","2565","NA","NA","NA","NA","2504","2503","2504","56508","lineup1","no","5","no","1366"
"","white","no","xpyriment","legacy","legacy","0","no","relative","0","0","0","0","0","5","5","0","0","0","5","0","0","0","0","5","0","0","5","0","0","0","5","9","0","0","0","0","0","0","0","0","0","0","5","03/21/18 15:18:04","Executes Python code","yes","","lineup_videoVIPER_W.osexp","C:/Users/standalone/Desktop/H&S 21 Mar 1.25","no","mono","no","24","no","black","no","yes","male","768","No","no","no","no","legacy","5","0","C:/Users/standalone/Desktop/H&S 21 Mar 1.25/subject-103.csv","[member6]","1","4","2","3","6","5","xpyriment","Jazzy James","3.1.6","0","2","legacy","1024","2","48000","-16","experiment","103","odd","legacy","[target1]","present","absent","NA","2565","NA","NA","2565","70632","78631","NA","NA","NA","62332","NA","2503","2560","2563","73820","NA","NA","3010","2641","2611","2641","70911","78631","NA","2563","2565","NA","NA","NA","NA","2504","2503","2504","70912","lineup1","no","6","no","1366"
"","white","no","xpyriment","legacy","legacy","0","no","relative","0","0","0","0","0","5","5","0","0","0","5","0","0","0","0","5","0","0","5","0","0","0","5","9","0","0","0","0","0","0","0","0","0","0","5","03/21/18 15:18:04","Executes Python code","yes","","lineup_videoVIPER_W.osexp","C:/Users/standalone/Desktop/H&S 21 Mar 1.25","no","mono","no","24","no","black","no","yes","male","768","No","Yes","One","No","legacy","5","0","C:/Users/standalone/Desktop/H&S 21 Mar 1.25/subject-103.csv","[member6]","1","4","2","3","6","5","xpyriment","Jazzy James","3.1.6","0","2","legacy","1024","2","48000","-16","experiment","103","odd","legacy","[target1]","present","absent","NA","2565","88800","NA","2565","70632","78631","83401","88800","99331","62332","NA","2503","2560","2563","73820","NA","NA","3010","2641","2611","2641","70911","99331","78669","2563","2565","83401","94442","NA","NA","2504","2503","2504","70912","lineup1","no","6","no","1366"
"","white","no","xpyriment","legacy","legacy","0","no","relative","2","2","0","2","2","5","5","0","0","0","5","0","0","0","1","5","0","0","5","0","1","0","5","11","0","1","2","0","0","0","0","0","0","0","5","03/21/18 15:18:04","Executes Python code","yes","","lineup_videoVIPER_W.osexp","C:/Users/standalone/Desktop/H&S 21 Mar 1.25","no","mono","no","24","no","black","no","yes","female","768","No","Yes","One","No","legacy","0","0","C:/Users/standalone/Desktop/H&S 21 Mar 1.25/subject-103.csv","[member6]","5","4","3","1","2","7","xpyriment","Jazzy James","3.1.6","0","2","legacy","1024","2","48000","-16","experiment","103","odd","legacy","[target2]","present","absent","99400","2565","88800","99400","2565","70632","78631","83401","88800","99331","62332","NA","2503","2560","99396","73820","NA","NA","3010","2641","2611","2641","70911","99400","78669","99396","99400","83401","94442","NA","NA","2504","2503","2504","70912","lineup1","no","6","no","1366"
"","white","no","xpyriment","legacy","legacy","0","no","relative","2","2","0","2","2","5","5","0","0","0","5","0","0","0","1","5","0","0","5","0","1","0","5","11","0","1","2","0","0","0","0","0","0","0","5","03/21/18 15:18:04","Executes Python code","yes","","lineup_videoVIPER_W.osexp","C:/Users/standalone/Desktop/H&S 21 Mar 1.25","no","mono","no","24","no","black","no","yes","female","768","No","Yes","One","No","legacy","0","0","C:/Users/standalone/Desktop/H&S 21 Mar 1.25/subject-103.csv","[member6]","5","4","3","1","2","7","xpyriment","Jazzy James","3.1.6","0","2","legacy","1024","2","48000","-16","experiment","103","odd","legacy","[target2]","present","absent","99400","2565","88800","99400","2565","70632","78631","83401","88800","99331","62332","NA","2503","2560","99396","73820","NA","NA","3010","2641","2611","2641","70911","99435","78669","99396","99400","83401","94442","NA","NA","2504","2503","2504","70912","lineup1","no","6","no","1366"
"","white","no","xpyriment","legacy","legacy","0","no","relative","2","2","1","2","2","6","6","1","1","1","6","0","0","0","1","6","1","1","6","1","1","1","6","13","1","1","2","1","1","1","1","0","0","0","6","03/21/18 15:18:04","Executes Python code","yes","","lineup_videoVIPER_W.osexp","C:/Users/standalone/Desktop/H&S 21 Mar 1.25","no","mono","no","24","no","black","no","yes","female","768","No","no","no","no","legacy","0","0","C:/Users/standalone/Desktop/H&S 21 Mar 1.25/subject-103.csv","[member1]","5","4","3","1","2","7","xpyriment","Jazzy James","3.1.6","0","2","legacy","1024","2","48000","-16","experiment","103","odd","legacy","[target2]","present","absent","99400","2565","88800","99400","2565","70632","111893","83401","88800","99331","62332","NA","2503","2560","99396","108729","NA","NA","99728","99495","99465","99495","99728","111893","78669","99396","99400","83401","94442","NA","NA","2504","2503","2504","106240","lineup1","no","1","no","1366"
"","white","no","xpyriment","legacy","legacy","0","no","relative","2","2","1","2","2","7","7","1","1","1","7","0","0","0","1","7","1","1","7","1","1","1","7","14","1","1","2","1","1","1","1","0","0","0","7","03/21/18 15:18:04","Executes Python code","yes","","lineup_videoVIPER_W.osexp","C:/Users/standalone/Desktop/H&S 21 Mar 1.25","no","mono","no","24","no","black","no","yes","female","768","No","no","no","no","legacy","1","0","C:/Users/standalone/Desktop/H&S 21 Mar 1.25/subject-103.csv","[member2]","5","4","3","1","2","7","xpyriment","Jazzy James","3.1.6","0","2","legacy","1024","2","48000","-16","experiment","103","odd","legacy","[target2]","present","absent","99400","2565","88800","99400","2565","70632","115778","83401","88800","99331","62332","NA","2503","2560","99396","113509","NA","NA","99728","99495","99465","99495","112185","115778","78669","99396","99400","83401","94442","NA","NA","2504","2503","2504","112185","lineup1","no","2","no","1366"
"","white","no","xpyriment","legacy","legacy","0","no","relative","2","2","1","2","2","8","8","1","1","1","8","0","0","0","1","8","1","1","8","1","1","1","8","15","1","1","2","1","1","1","1","0","0","0","8","03/21/18 15:18:04","Executes Python code","yes","","lineup_videoVIPER_W.osexp","C:/Users/standalone/Desktop/H&S 21 Mar 1.25","no","mono","no","24","no","black","no","yes","female","768","No","no","no","no","legacy","2","0","C:/Users/standalone/Desktop/H&S 21 Mar 1.25/subject-103.csv","[member3]","5","4","3","1","2","7","xpyriment","Jazzy James","3.1.6","0","2","legacy","1024","2","48000","-16","experiment","103","odd","legacy","[target2]","present","absent","99400","2565","88800","99400","2565","70632","120573","83401","88800","99331","62332","NA","2503","2560","99396","117045","NA","NA","99728","99495","99465","99495","116043","120573","78669","99396","99400","83401","94442","NA","NA","2504","2503","2504","116043","lineup1","no","3","no","1366"
"","white","no","xpyriment","legacy","legacy","0","no","relative","2","2","1","2","2","9","9","1","1","1","9","0","0","0","1","9","1","1","9","1","1","1","9","16","1","1","2","1","1","1","1","0","0","0","9","03/21/18 15:18:04","Executes Python code","yes","","lineup_videoVIPER_W.osexp","C:/Users/standalone/Desktop/H&S 21 Mar 1.25","no","mono","no","24","no","black","no","yes","female","768","No","no","no","no","legacy","3","0","C:/Users/standalone/Desktop/H&S 21 Mar 1.25/subject-103.csv","[member4]","5","4","3","1","2","7","xpyriment","Jazzy James","3.1.6","0","2","legacy","1024","2","48000","-16","experiment","103","odd","legacy","[target2]","present","absent","99400","2565","88800","99400","2565","70632","124647","83401","88800","99331","62332","NA","2503","2560","99396","121941","NA","NA","99728","99495","99465","99495","120835","124647","78669","99396","99400","83401","94442","NA","NA","2504","2503","2504","120835","lineup1","no","4","no","1366"
"","white","no","xpyriment","legacy","legacy","0","no","relative","2","2","1","2","2","10","10","1","1","1","10","0","0","0","1","10","1","1","10","1","1","1","10","17","1","1","2","1","1","1","1","0","0","0","10","03/21/18 15:18:04","Executes Python code","yes","","lineup_videoVIPER_W.osexp","C:/Users/standalone/Desktop/H&S 21 Mar 1.25","no","mono","no","24","no","black","no","yes","female","768","Not sure","no","no","no","legacy","4","0","C:/Users/standalone/Desktop/H&S 21 Mar 1.25/subject-103.csv","[member5]","5","4","3","1","2","7","xpyriment","Jazzy James","3.1.6","0","2","legacy","1024","2","48000","-16","experiment","103","odd","legacy","[target2]","present","absent","99400","2565","88800","99400","2565","70632","131017","83401","88800","99331","62332","NA","2503","2560","99396","127653","NA","NA","99728","99495","99465","99495","124945","131017","78669","99396","99400","83401","94442","NA","NA","2504","2503","2504","124945","lineup1","no","5","no","1366"
"","white","no","xpyriment","legacy","legacy","0","no","relative","2","2","1","2","2","11","11","1","1","1","11","0","0","0","1","11","1","1","11","1","1","1","11","18","1","1","2","1","1","1","1","0","0","0","11","03/21/18 15:18:04","Executes Python code","yes","","lineup_videoVIPER_W.osexp","C:/Users/standalone/Desktop/H&S 21 Mar 1.25","no","mono","no","24","no","black","no","yes","female","768","No","no","no","no","legacy","5","0","C:/Users/standalone/Desktop/H&S 21 Mar 1.25/subject-103.csv","[member6]","5","4","3","1","2","7","xpyriment","Jazzy James","3.1.6","0","2","legacy","1024","2","48000","-16","experiment","103","odd","legacy","[target2]","present","absent","99400","2565","88800","99400","2565","70632","135298","83401","88800","99331","62332","NA","2503","2560","99396","132598","NA","NA","99728","99495","99465","99495","131294","135298","78669","99396","99400","83401","94442","NA","NA","2504","2503","2504","131294","lineup1","no","6","no","1366"
"","white","no","xpyriment","legacy","legacy","0","no","relative","2","2","1","2","2","11","11","1","1","1","11","0","0","0","1","11","1","1","11","1","1","1","11","18","1","1","2","1","1","1","1","0","0","0","11","03/21/18 15:18:04","Executes Python code","yes","","lineup_videoVIPER_W.osexp","C:/Users/standalone/Desktop/H&S 21 Mar 1.25","no","mono","no","24","no","black","no","yes","female","768","No","No","no","No","legacy","5","0","C:/Users/standalone/Desktop/H&S 21 Mar 1.25/subject-103.csv","[member6]","5","4","3","1","2","7","xpyriment","Jazzy James","3.1.6","0","2","legacy","1024","2","48000","-16","experiment","103","odd","legacy","[target2]","present","absent","99400","2565","139301","99400","2565","70632","135298","139301","88800","149051","62332","NA","2503","2560","99396","132598","NA","NA","99728","99495","99465","99495","131294","149051","135343","99396","99400","83401","143841","NA","NA","2504","2503","2504","131294","lineup1","no","6","no","1366"
"","white","no","xpyriment","legacy","legacy","0","no","relative","2","2","1","2","2","11","11","1","1","1","11","0","0","0","1","11","1","1","11","1","1","1","11","18","1","1","2","1","1","1","1","0","0","0","11","03/21/18 15:18:04","Executes Python code","yes","","lineup_videoVIPER_W.osexp","C:/Users/standalone/Desktop/H&S 21 Mar 1.25","no","mono","no","24","no","black","no","yes","female","768","No","No","no","No","legacy","5","0","C:/Users/standalone/Desktop/H&S 21 Mar 1.25/subject-103.csv","[member6]","5","4","3","1","2","7","xpyriment","Jazzy James","3.1.6","0","2","legacy","1024","2","48000","-16","experiment","103","odd","legacy","[target2]","present","absent","99400","2565","139301","99400","2565","70632","135298","139301","88800","149051","62332","149111","2503","2560","99396","132598","NA","NA","99728","99495","99465","99495","131294","150167","135343","99396","99400","83401","143841","NA","NA","2504","2503","2504","131294","lineup1","no","6","no","1366"
