"_prepare","background","bidi","canvas_backend","clock_backend","color_backend","compensation","confidence_immediate","coordinates","count_TA_sequence_setting","count_TP_sequence_setting","count_admin_check","count_check_TA","count_check_TP","count_check_confidence_imm","count_check_identification","count_check_made_identification","count_check_multiple_identification","count_check_proceeding_identification","count_confidence_imm","count_end_of_experiment","count_experiment","count_gender_lineup_loop","count_gender_randomization_sequence","count_identification_task","count_instructions_after_multiple","count_instructions_after_proceed_identification","count_instructions_before_view","count_lineup_loop","count_lineup_procedure_loop","count_lineup_procedure_sequence","count_lineup_sequence","count_logger","count_made_identification","count_member_randomization_loop","count_member_randomization_sequence","count_multiple_identification","count_proceed_identification","count_repeat_lineup_sequence_identification","count_repeat_lineup_sequence_multiple","count_target_setting","count_target_setting_loop","count_target_setting_sequence","count_video","datetime","description","disable_garbage_collection","empty_column","experiment_file","experiment_path","font_bold","font_family","font_italic","font_size","font_underline","foreground","form_clicks","fullscreen","gender","height","identification","identification_made","identification_multiple","identification_proceed","keyboard_backend","live_row","live_row_target_setting_loop","logfile","member","member1","member2","member3","member4","member5","member6","mouse_backend","opensesame_codename","opensesame_version","repeat_cycle","round_decimals","sampler_backend","sound_buf_size","sound_channels","sound_freq","sound_sample_size","start","subject_nr","subject_parity","synth_backend","target","target1","target2","time_TA_sequence_setting","time_TP_sequence_setting","time_admin_check","time_check_TA","time_check_TP","time_check_confidence_imm","time_check_identification","time_check_made_identification","time_check_multiple_identification","time_check_proceeding_identification","time_confidence_imm","time_end_of_experiment","time_experiment","time_gender_lineup_loop","time_gender_randomization_sequence","time_identification_task","time_instructions_after_multiple","time_instructions_after_proceed_identification","time_instructions_before_view","time_lineup_loop","time_lineup_procedure_loop","time_lineup_procedure_sequence","time_lineup_sequence","time_logger","time_made_identification","time_member_randomization_loop","time_member_randomization_sequence","time_multiple_identification","time_proceed_identification","time_repeat_lineup_sequence_identification","time_repeat_lineup_sequence_multiple","time_target_setting","time_target_setting_loop","time_target_setting_sequence","time_video","title","transparent_variables","trial","uniform_coordinates","width"
"","white","no","xpyriment","legacy","legacy","0","NA","relative","NA","NA","NA","NA","NA","NA","NA","NA","NA","NA","NA","0","0","0","NA","NA","NA","NA","NA","NA","NA","NA","NA","1","NA","NA","NA","NA","NA","NA","NA","0","0","0","NA","03/21/18 14:42:49","Executes Python code","yes","","lineup_videoVIPER_W.osexp","C:/Users/standalone/Desktop/H&S 21 Mar 1.25","no","mono","no","24","no","black","no","yes","NA","768","NA","NA","NA","NA","legacy","0","0","C:/Users/standalone/Desktop/H&S 21 Mar 1.25/subject-133.csv","NA","NA","NA","NA","NA","NA","NA","xpyriment","Jazzy James","3.1.6","0","2","legacy","1024","2","48000","-16","experiment","133","odd","legacy","NA","absent","present","NA","NA","NA","NA","NA","NA","NA","NA","NA","NA","NA","NA","2356","NA","NA","NA","NA","NA","NA","NA","NA","NA","NA","2358","NA","NA","NA","NA","NA","NA","NA","2357","2356","2357","NA","lineup1","no","NA","no","1366"
"","white","no","xpyriment","legacy","legacy","0","NA","relative","1","1","NA","1","1","NA","NA","NA","NA","NA","NA","0","0","0","0","NA","NA","NA","NA","NA","0","NA","NA","3","NA","0","1","NA","NA","NA","NA","0","0","0","NA","03/21/18 14:42:49","Executes Python code","yes","","lineup_videoVIPER_W.osexp","C:/Users/standalone/Desktop/H&S 21 Mar 1.25","no","mono","no","24","no","black","no","yes","female","768","NA","NA","NA","NA","legacy","0","0","C:/Users/standalone/Desktop/H&S 21 Mar 1.25/subject-133.csv","NA","3","4","5","6","2","1","xpyriment","Jazzy James","3.1.6","0","2","legacy","1024","2","48000","-16","experiment","133","odd","legacy","[target2]","absent","present","NA","2418","NA","NA","2418","NA","NA","NA","NA","NA","NA","NA","2356","2411","2414","NA","NA","NA","NA","NA","NA","NA","NA","2419","NA","2414","2418","NA","NA","NA","NA","2357","2356","2357","NA","lineup1","no","NA","no","1366"
"","white","no","xpyriment","legacy","legacy","0","NA","relative","1","1","NA","1","1","NA","NA","NA","NA","NA","NA","0","0","0","0","NA","NA","NA","NA","NA","0","NA","NA","3","NA","0","1","NA","NA","NA","NA","0","0","0","NA","03/21/18 14:42:49","Executes Python code","yes","","lineup_videoVIPER_W.osexp","C:/Users/standalone/Desktop/H&S 21 Mar 1.25","no","mono","no","24","no","black","no","yes","female","768","NA","NA","NA","NA","legacy","0","0","C:/Users/standalone/Desktop/H&S 21 Mar 1.25/subject-133.csv","NA","3","4","5","6","2","1","xpyriment","Jazzy James","3.1.6","0","2","legacy","1024","2","48000","-16","experiment","133","odd","legacy","[target2]","absent","present","NA","2418","NA","NA","2418","NA","NA","NA","NA","NA","NA","NA","2356","2411","2414","NA","NA","NA","NA","NA","NA","NA","NA","2454","NA","2414","2418","NA","NA","NA","NA","2357","2356","2357","NA","lineup1","no","NA","no","1366"
"","white","no","xpyriment","legacy","legacy","0","no","relative","1","1","0","1","1","0","0","0","0","0","0","0","0","0","0","0","0","0","0","0","0","0","0","5","0","0","1","0","0","0","0","0","0","0","0","03/21/18 14:42:49","Executes Python code","yes","","lineup_videoVIPER_W.osexp","C:/Users/standalone/Desktop/H&S 21 Mar 1.25","no","mono","no","24","no","black","no","yes","female","768","No","no","no","no","legacy","0","0","C:/Users/standalone/Desktop/H&S 21 Mar 1.25/subject-133.csv","[member1]","3","4","5","6","2","1","xpyriment","Jazzy James","3.1.6","0","2","legacy","1024","2","48000","-16","experiment","133","odd","legacy","[target2]","absent","present","NA","2418","NA","NA","2418","NA","35982","NA","NA","NA","NA","NA","2356","2411","2414","23206","NA","NA","2895","2523","2493","2523","2895","35982","NA","2414","2418","NA","NA","NA","NA","2357","2356","2357","7819","lineup1","no","1","no","1366"
"","white","no","xpyriment","legacy","legacy","0","no","relative","1","1","0","1","1","1","1","0","0","0","1","0","0","0","0","1","0","0","1","0","0","0","1","6","0","0","1","0","0","0","0","0","0","0","1","03/21/18 14:42:49","Executes Python code","yes","","lineup_videoVIPER_W.osexp","C:/Users/standalone/Desktop/H&S 21 Mar 1.25","no","mono","no","24","no","black","no","yes","female","768","Not sure","no","no","no","legacy","1","0","C:/Users/standalone/Desktop/H&S 21 Mar 1.25/subject-133.csv","[member2]","3","4","5","6","2","1","xpyriment","Jazzy James","3.1.6","0","2","legacy","1024","2","48000","-16","experiment","133","odd","legacy","[target2]","absent","present","NA","2418","NA","NA","2418","NA","62611","NA","NA","NA","NA","NA","2356","2411","2414","50838","NA","NA","2895","2523","2493","2523","36243","62612","NA","2414","2418","NA","NA","NA","NA","2357","2356","2357","36243","lineup1","no","2","no","1366"
"","white","no","xpyriment","legacy","legacy","0","no","relative","1","1","0","1","1","2","2","0","0","0","2","0","0","0","0","2","0","0","2","0","0","0","2","7","0","0","1","0","0","0","0","0","0","0","2","03/21/18 14:42:49","Executes Python code","yes","","lineup_videoVIPER_W.osexp","C:/Users/standalone/Desktop/H&S 21 Mar 1.25","no","mono","no","24","no","black","no","yes","female","768","No","no","no","no","legacy","2","0","C:/Users/standalone/Desktop/H&S 21 Mar 1.25/subject-133.csv","[member3]","3","4","5","6","2","1","xpyriment","Jazzy James","3.1.6","0","2","legacy","1024","2","48000","-16","experiment","133","odd","legacy","[target2]","absent","present","NA","2418","NA","NA","2418","NA","67494","NA","NA","NA","NA","NA","2356","2411","2414","64376","NA","NA","2895","2523","2493","2523","62903","67494","NA","2414","2418","NA","NA","NA","NA","2357","2356","2357","62903","lineup1","no","3","no","1366"
"","white","no","xpyriment","legacy","legacy","0","no","relative","1","1","0","1","1","3","3","0","0","0","3","0","0","0","0","3","0","0","3","0","0","0","3","8","0","0","1","0","0","0","0","0","0","0","3","03/21/18 14:42:49","Executes Python code","yes","","lineup_videoVIPER_W.osexp","C:/Users/standalone/Desktop/H&S 21 Mar 1.25","no","mono","no","24","no","black","no","yes","female","768","No","no","no","no","legacy","3","0","C:/Users/standalone/Desktop/H&S 21 Mar 1.25/subject-133.csv","[member4]","3","4","5","6","2","1","xpyriment","Jazzy James","3.1.6","0","2","legacy","1024","2","48000","-16","experiment","133","odd","legacy","[target2]","absent","present","NA","2418","NA","NA","2418","NA","91073","NA","NA","NA","NA","NA","2356","2411","2414","80964","NA","NA","2895","2523","2493","2523","67782","91074","NA","2414","2418","NA","NA","NA","NA","2357","2356","2357","67783","lineup1","no","4","no","1366"
"","white","no","xpyriment","legacy","legacy","0","no","relative","1","1","0","1","1","4","4","0","0","0","4","0","0","0","0","4","0","0","4","0","0","0","4","9","0","0","1","0","0","0","0","0","0","0","4","03/21/18 14:42:49","Executes Python code","yes","","lineup_videoVIPER_W.osexp","C:/Users/standalone/Desktop/H&S 21 Mar 1.25","no","mono","no","24","no","black","no","yes","female","768","Not sure","no","no","no","legacy","4","0","C:/Users/standalone/Desktop/H&S 21 Mar 1.25/subject-133.csv","[member5]","3","4","5","6","2","1","xpyriment","Jazzy James","3.1.6","0","2","legacy","1024","2","48000","-16","experiment","133","odd","legacy","[target2]","absent","present","NA","2418","NA","NA","2418","NA","116848","NA","NA","NA","NA","NA","2356","2411","2414","112776","NA","NA","2895","2523","2493","2523","91340","116848","NA","2414","2418","NA","NA","NA","NA","2357","2356","2357","91340","lineup1","no","5","no","1366"
"","white","no","xpyriment","legacy","legacy","0","no","relative","1","1","0","1","1","5","5","0","0","0","5","0","0","0","0","5","0","0","5","0","0","0","5","10","0","0","1","0","0","0","0","0","0","0","5","03/21/18 14:42:49","Executes Python code","yes","","lineup_videoVIPER_W.osexp","C:/Users/standalone/Desktop/H&S 21 Mar 1.25","no","mono","no","24","no","black","no","yes","female","768","No","no","no","no","legacy","5","0","C:/Users/standalone/Desktop/H&S 21 Mar 1.25/subject-133.csv","[member6]","3","4","5","6","2","1","xpyriment","Jazzy James","3.1.6","0","2","legacy","1024","2","48000","-16","experiment","133","odd","legacy","[target2]","absent","present","NA","2418","NA","NA","2418","NA","124703","NA","NA","NA","NA","NA","2356","2411","2414","121478","NA","NA","2895","2523","2493","2523","117106","124703","NA","2414","2418","NA","NA","NA","NA","2357","2356","2357","117106","lineup1","no","6","no","1366"
"","white","no","xpyriment","legacy","legacy","0","no","relative","1","1","0","1","1","5","5","0","0","0","5","0","0","0","0","5","0","0","5","0","0","0","5","10","0","0","1","0","0","0","0","0","0","0","5","03/21/18 14:42:49","Executes Python code","yes","","lineup_videoVIPER_W.osexp","C:/Users/standalone/Desktop/H&S 21 Mar 1.25","no","mono","no","24","no","black","no","yes","female","768","No","No","no","No","legacy","5","0","C:/Users/standalone/Desktop/H&S 21 Mar 1.25/subject-133.csv","[member6]","3","4","5","6","2","1","xpyriment","Jazzy James","3.1.6","0","2","legacy","1024","2","48000","-16","experiment","133","odd","legacy","[target2]","absent","present","NA","2418","133003","NA","2418","NA","124703","133002","NA","145578","NA","NA","2356","2411","2414","121478","NA","NA","2895","2523","2493","2523","117106","145579","124758","2414","2418","NA","141030","NA","NA","2357","2356","2357","117106","lineup1","no","6","no","1366"
"","white","no","xpyriment","legacy","legacy","0","no","relative","2","2","0","2","2","5","5","0","0","0","5","0","0","0","1","5","0","0","5","0","1","0","5","11","0","1","2","0","0","0","0","0","0","0","5","03/21/18 14:42:49","Executes Python code","yes","","lineup_videoVIPER_W.osexp","C:/Users/standalone/Desktop/H&S 21 Mar 1.25","no","mono","no","24","no","black","no","yes","male","768","No","No","no","No","legacy","0","0","C:/Users/standalone/Desktop/H&S 21 Mar 1.25/subject-133.csv","[member6]","4","7","1","3","2","5","xpyriment","Jazzy James","3.1.6","0","2","legacy","1024","2","48000","-16","experiment","133","odd","legacy","[target1]","absent","present","145642","2418","133003","145642","2418","NA","124703","133002","NA","145578","NA","NA","2356","2411","145639","121478","NA","NA","2895","2523","2493","2523","117106","145642","124758","145639","145641","NA","141030","NA","NA","2357","2356","2357","117106","lineup1","no","6","no","1366"
"","white","no","xpyriment","legacy","legacy","0","no","relative","2","2","1","2","2","6","6","1","1","1","6","0","0","0","1","6","1","1","6","1","1","1","6","13","1","1","2","1","1","1","1","0","0","0","6","03/21/18 14:42:49","Executes Python code","yes","","lineup_videoVIPER_W.osexp","C:/Users/standalone/Desktop/H&S 21 Mar 1.25","no","mono","no","24","no","black","no","yes","male","768","No","no","no","no","legacy","0","0","C:/Users/standalone/Desktop/H&S 21 Mar 1.25/subject-133.csv","[member1]","4","7","1","3","2","5","xpyriment","Jazzy James","3.1.6","0","2","legacy","1024","2","48000","-16","experiment","133","odd","legacy","[target1]","absent","present","145642","2418","133003","145642","2418","NA","156018","133002","NA","145578","NA","NA","2356","2411","145639","153478","NA","NA","145946","145704","145674","145703","145946","156018","124758","145639","145641","NA","141030","NA","NA","2357","2356","2357","150783","lineup1","no","1","no","1366"
"","white","no","xpyriment","legacy","legacy","0","no","relative","2","2","1","2","2","7","7","1","1","1","7","0","0","0","1","7","1","1","7","1","1","1","7","14","1","1","2","1","1","1","1","0","0","0","7","03/21/18 14:42:49","Executes Python code","yes","","lineup_videoVIPER_W.osexp","C:/Users/standalone/Desktop/H&S 21 Mar 1.25","no","mono","no","24","no","black","no","yes","male","768","No","no","no","no","legacy","1","0","C:/Users/standalone/Desktop/H&S 21 Mar 1.25/subject-133.csv","[member2]","4","7","1","3","2","5","xpyriment","Jazzy James","3.1.6","0","2","legacy","1024","2","48000","-16","experiment","133","odd","legacy","[target1]","absent","present","145642","2418","133003","145642","2418","NA","159920","133002","NA","145578","NA","NA","2356","2411","145639","157240","NA","NA","145946","145704","145674","145703","156312","159920","124758","145639","145641","NA","141030","NA","NA","2357","2356","2357","156312","lineup1","no","2","no","1366"
"","white","no","xpyriment","legacy","legacy","0","no","relative","2","2","1","2","2","8","8","1","1","1","8","0","0","0","1","8","1","1","8","1","1","1","8","15","1","1","2","1","1","1","1","0","0","0","8","03/21/18 14:42:49","Executes Python code","yes","","lineup_videoVIPER_W.osexp","C:/Users/standalone/Desktop/H&S 21 Mar 1.25","no","mono","no","24","no","black","no","yes","male","768","No","no","no","no","legacy","2","0","C:/Users/standalone/Desktop/H&S 21 Mar 1.25/subject-133.csv","[member3]","4","7","1","3","2","5","xpyriment","Jazzy James","3.1.6","0","2","legacy","1024","2","48000","-16","experiment","133","odd","legacy","[target1]","absent","present","145642","2418","133003","145642","2418","NA","163576","133002","NA","145578","NA","NA","2356","2411","145639","161077","NA","NA","145946","145704","145674","145703","160211","163576","124758","145639","145641","NA","141030","NA","NA","2357","2356","2357","160211","lineup1","no","3","no","1366"
"","white","no","xpyriment","legacy","legacy","0","no","relative","2","2","1","2","2","9","9","1","1","1","9","0","0","0","1","9","1","1","9","1","1","1","9","16","1","1","2","1","1","1","1","0","0","0","9","03/21/18 14:42:49","Executes Python code","yes","","lineup_videoVIPER_W.osexp","C:/Users/standalone/Desktop/H&S 21 Mar 1.25","no","mono","no","24","no","black","no","yes","male","768","No","no","no","no","legacy","3","0","C:/Users/standalone/Desktop/H&S 21 Mar 1.25/subject-133.csv","[member4]","4","7","1","3","2","5","xpyriment","Jazzy James","3.1.6","0","2","legacy","1024","2","48000","-16","experiment","133","odd","legacy","[target1]","absent","present","145642","2418","133003","145642","2418","NA","168165","133002","NA","145578","NA","NA","2356","2411","145639","165469","NA","NA","145946","145704","145674","145703","163838","168165","124758","145639","145641","NA","141030","NA","NA","2357","2356","2357","163838","lineup1","no","4","no","1366"
"","white","no","xpyriment","legacy","legacy","0","no","relative","2","2","1","2","2","10","10","1","1","1","10","0","0","0","1","10","1","1","10","1","1","1","10","17","1","1","2","1","1","1","1","0","0","0","10","03/21/18 14:42:49","Executes Python code","yes","","lineup_videoVIPER_W.osexp","C:/Users/standalone/Desktop/H&S 21 Mar 1.25","no","mono","no","24","no","black","no","yes","male","768","No","no","no","no","legacy","4","0","C:/Users/standalone/Desktop/H&S 21 Mar 1.25/subject-133.csv","[member5]","4","7","1","3","2","5","xpyriment","Jazzy James","3.1.6","0","2","legacy","1024","2","48000","-16","experiment","133","odd","legacy","[target1]","absent","present","145642","2418","133003","145642","2418","NA","172178","133002","NA","145578","NA","NA","2356","2411","145639","169695","NA","NA","145946","145704","145674","145703","168430","172178","124758","145639","145641","NA","141030","NA","NA","2357","2356","2357","168430","lineup1","no","5","no","1366"
"","white","no","xpyriment","legacy","legacy","0","no","relative","2","2","1","2","2","11","11","1","1","1","11","0","0","0","1","11","1","1","11","1","1","1","11","18","1","1","2","1","1","1","1","0","0","0","11","03/21/18 14:42:49","Executes Python code","yes","","lineup_videoVIPER_W.osexp","C:/Users/standalone/Desktop/H&S 21 Mar 1.25","no","mono","no","24","no","black","no","yes","male","768","Not sure","no","no","no","legacy","5","0","C:/Users/standalone/Desktop/H&S 21 Mar 1.25/subject-133.csv","[member6]","4","7","1","3","2","5","xpyriment","Jazzy James","3.1.6","0","2","legacy","1024","2","48000","-16","experiment","133","odd","legacy","[target1]","absent","present","145642","2418","133003","145642","2418","NA","190221","133002","NA","145578","NA","NA","2356","2411","145639","187664","NA","NA","145946","145704","145674","145703","172446","190221","124758","145639","145641","NA","141030","NA","NA","2357","2356","2357","172446","lineup1","no","6","no","1366"
"","white","no","xpyriment","legacy","legacy","0","no","relative","2","2","1","2","2","11","11","1","1","1","11","0","0","0","1","11","1","1","11","1","1","1","11","18","1","1","2","1","1","1","1","0","0","0","11","03/21/18 14:42:49","Executes Python code","yes","","lineup_videoVIPER_W.osexp","C:/Users/standalone/Desktop/H&S 21 Mar 1.25","no","mono","no","24","no","black","no","yes","male","768","Not sure","No","no","No","legacy","5","0","C:/Users/standalone/Desktop/H&S 21 Mar 1.25/subject-133.csv","[member6]","4","7","1","3","2","5","xpyriment","Jazzy James","3.1.6","0","2","legacy","1024","2","48000","-16","experiment","133","odd","legacy","[target1]","absent","present","145642","2418","195343","145642","2418","NA","190221","195343","NA","204571","NA","NA","2356","2411","145639","187664","NA","NA","145946","145704","145674","145703","172446","204571","190263","145639","145641","NA","198621","NA","NA","2357","2356","2357","172446","lineup1","no","6","no","1366"
"","white","no","xpyriment","legacy","legacy","0","no","relative","2","2","1","2","2","11","11","1","1","1","11","0","0","0","1","11","1","1","11","1","1","1","11","18","1","1","2","1","1","1","1","0","0","0","11","03/21/18 14:42:49","Executes Python code","yes","","lineup_videoVIPER_W.osexp","C:/Users/standalone/Desktop/H&S 21 Mar 1.25","no","mono","no","24","no","black","no","yes","male","768","Not sure","No","no","No","legacy","5","0","C:/Users/standalone/Desktop/H&S 21 Mar 1.25/subject-133.csv","[member6]","4","7","1","3","2","5","xpyriment","Jazzy James","3.1.6","0","2","legacy","1024","2","48000","-16","experiment","133","odd","legacy","[target1]","absent","present","145642","2418","195343","145642","2418","NA","190221","195343","NA","204571","NA","204636","2356","2411","145639","187664","NA","NA","145946","145704","145674","145703","172446","206336","190263","145639","145641","NA","198621","NA","NA","2357","2356","2357","172446","lineup1","no","6","no","1366"
