"_prepare","background","bidi","canvas_backend","clock_backend","color_backend","compensation","confidence_immediate","coordinates","count_TA_sequence_setting","count_TP_sequence_setting","count_admin_check","count_check_TA","count_check_TP","count_check_confidence_imm","count_check_identification","count_check_made_identification","count_check_multiple_identification","count_check_proceeding_identification","count_check_time_of_exposure","count_confidence_imm","count_end_of_experiment","count_experiment","count_gender_lineup_loop","count_gender_randomization_sequence","count_identification_task","count_instructions_after_multiple","count_instructions_after_proceed_identification","count_instructions_before_view","count_lineup_loop","count_lineup_procedure_loop","count_lineup_procedure_sequence","count_lineup_sequence","count_logger","count_made_identification","count_member_randomization_loop","count_member_randomization_sequence","count_multiple_identification","count_proceed_identification","count_repeat_lineup_sequence_identification","count_repeat_lineup_sequence_multiple","count_target_setting","count_target_setting_loop","count_target_setting_sequence","count_time_of_exposure","count_video","datetime","description","disable_garbage_collection","empty_column","experiment_file","experiment_path","font_bold","font_family","font_italic","font_size","font_underline","foreground","form_clicks","fullscreen","gender","height","identification","identification_made","identification_multiple","identification_proceed","keyboard_backend","lecture_time","live_row","live_row_target_setting_loop","logfile","member","member1","member2","member3","member4","member5","member6","mouse_backend","opensesame_codename","opensesame_version","repeat_cycle","round_decimals","sampler_backend","sound_buf_size","sound_channels","sound_freq","sound_sample_size","start","subject_nr","subject_parity","synth_backend","target","target1","target2","time_TA_sequence_setting","time_TP_sequence_setting","time_admin_check","time_check_TA","time_check_TP","time_check_confidence_imm","time_check_identification","time_check_made_identification","time_check_multiple_identification","time_check_proceeding_identification","time_check_time_of_exposure","time_confidence_imm","time_end_of_experiment","time_experiment","time_gender_lineup_loop","time_gender_randomization_sequence","time_identification_task","time_instructions_after_multiple","time_instructions_after_proceed_identification","time_instructions_before_view","time_lineup_loop","time_lineup_procedure_loop","time_lineup_procedure_sequence","time_lineup_sequence","time_logger","time_made_identification","time_member_randomization_loop","time_member_randomization_sequence","time_multiple_identification","time_proceed_identification","time_repeat_lineup_sequence_identification","time_repeat_lineup_sequence_multiple","time_target_setting","time_target_setting_loop","time_target_setting_sequence","time_time_of_exposure","time_video","title","transparent_variables","trial","uniform_coordinates","width"
"","white","no","xpyriment","legacy","legacy","0","NA","relative","NA","NA","NA","NA","NA","NA","NA","NA","NA","NA","0","NA","0","0","0","NA","NA","NA","NA","NA","NA","NA","NA","NA","1","NA","NA","NA","NA","NA","NA","NA","0","0","0","0","NA","12/02/17 13:40:27","Executes Python code","yes","","lineup_videoFB.osexp","C:/Users/standalone/Desktop/1.27 - Full Body Video","no","mono","no","24","no","black","no","yes","NA","768","NA","NA","NA","NA","legacy","no","0","0","C:/Users/standalone/Desktop/1.27 - Full Body Video/subject-42.csv","NA","NA","NA","NA","NA","NA","NA","xpyriment","Jazzy James","3.1.6","0","2","legacy","1024","2","48000","-16","experiment","42","even","legacy","NA","absent","present","NA","NA","NA","NA","NA","NA","NA","NA","NA","NA","NA","NA","NA","3850","NA","NA","NA","NA","NA","NA","NA","NA","NA","NA","3854","NA","NA","NA","NA","NA","NA","NA","3853","3852","3853","NA","NA","lineup1","no","NA","no","1366"
"","white","no","xpyriment","legacy","legacy","0","NA","relative","0","0","NA","0","0","NA","NA","NA","NA","NA","0","NA","0","0","0","0","NA","NA","NA","NA","NA","0","NA","NA","2","NA","0","0","NA","NA","NA","NA","0","0","0","0","NA","12/02/17 13:40:27","Executes Python code","yes","","lineup_videoFB.osexp","C:/Users/standalone/Desktop/1.27 - Full Body Video","no","mono","no","24","no","black","no","yes","male","768","NA","NA","NA","NA","legacy","no","0","0","C:/Users/standalone/Desktop/1.27 - Full Body Video/subject-42.csv","NA","2","1","4","3","7","5","xpyriment","Jazzy James","3.1.6","0","2","legacy","1024","2","48000","-16","experiment","42","even","legacy","[target1]","absent","present","3914","NA","NA","3914","NA","NA","NA","NA","NA","NA","NA","NA","NA","3850","3910","3912","NA","NA","NA","NA","NA","NA","NA","NA","3914","NA","3912","3914","NA","NA","NA","NA","3853","3852","3853","NA","NA","lineup1","no","NA","no","1366"
"","white","no","xpyriment","legacy","legacy","0","no","relative","0","0","0","0","0","0","0","0","0","0","0","0","0","0","0","0","0","0","0","0","0","0","0","0","4","0","0","0","0","0","0","0","0","0","0","0","0","12/02/17 13:40:27","Executes Python code","yes","","lineup_videoFB.osexp","C:/Users/standalone/Desktop/1.27 - Full Body Video","no","mono","no","24","no","black","no","yes","male","768","No","no","no","no","legacy","no","0","0","C:/Users/standalone/Desktop/1.27 - Full Body Video/subject-42.csv","[member1]","2","1","4","3","7","5","xpyriment","Jazzy James","3.1.6","0","2","legacy","1024","2","48000","-16","experiment","42","even","legacy","[target1]","absent","present","3914","NA","NA","3914","NA","NA","96042","NA","NA","NA","NA","NA","NA","3850","3910","3912","90922","NA","NA","5027","3996","3973","3996","5027","96042","NA","3912","3914","NA","NA","NA","NA","3853","3852","3853","NA","61983","lineup1","no","1","no","1366"
"","white","no","xpyriment","legacy","legacy","0","no","relative","0","0","0","0","0","1","1","0","0","0","0","1","0","0","0","0","1","0","0","1","0","0","0","1","5","0","0","0","0","0","0","0","0","0","0","0","1","12/02/17 13:40:27","Executes Python code","yes","","lineup_videoFB.osexp","C:/Users/standalone/Desktop/1.27 - Full Body Video","no","mono","no","24","no","black","no","yes","male","768","No","no","no","no","legacy","no","1","0","C:/Users/standalone/Desktop/1.27 - Full Body Video/subject-42.csv","[member2]","2","1","4","3","7","5","xpyriment","Jazzy James","3.1.6","0","2","legacy","1024","2","48000","-16","experiment","42","even","legacy","[target1]","absent","present","3914","NA","NA","3914","NA","NA","104306","NA","NA","NA","NA","NA","NA","3850","3910","3912","101243","NA","NA","5027","3996","3973","3996","97030","104306","NA","3912","3914","NA","NA","NA","NA","3853","3852","3853","NA","97030","lineup1","no","2","no","1366"
"","white","no","xpyriment","legacy","legacy","0","no","relative","0","0","0","0","0","2","2","0","0","0","0","2","0","0","0","0","2","0","0","2","0","0","0","2","6","0","0","0","0","0","0","0","0","0","0","0","2","12/02/17 13:40:27","Executes Python code","yes","","lineup_videoFB.osexp","C:/Users/standalone/Desktop/1.27 - Full Body Video","no","mono","no","24","no","black","no","yes","male","768","No","no","no","no","legacy","no","2","0","C:/Users/standalone/Desktop/1.27 - Full Body Video/subject-42.csv","[member3]","2","1","4","3","7","5","xpyriment","Jazzy James","3.1.6","0","2","legacy","1024","2","48000","-16","experiment","42","even","legacy","[target1]","absent","present","3914","NA","NA","3914","NA","NA","110791","NA","NA","NA","NA","NA","NA","3850","3910","3912","107804","NA","NA","5027","3996","3973","3996","105271","110791","NA","3912","3914","NA","NA","NA","NA","3853","3852","3853","NA","105271","lineup1","no","3","no","1366"
"","white","no","xpyriment","legacy","legacy","0","no","relative","0","0","0","0","0","3","3","0","0","0","0","3","0","0","0","0","3","0","0","3","0","0","0","3","7","0","0","0","0","0","0","0","0","0","0","0","3","12/02/17 13:40:27","Executes Python code","yes","","lineup_videoFB.osexp","C:/Users/standalone/Desktop/1.27 - Full Body Video","no","mono","no","24","no","black","no","yes","male","768","No","no","no","no","legacy","no","3","0","C:/Users/standalone/Desktop/1.27 - Full Body Video/subject-42.csv","[member4]","2","1","4","3","7","5","xpyriment","Jazzy James","3.1.6","0","2","legacy","1024","2","48000","-16","experiment","42","even","legacy","[target1]","absent","present","3914","NA","NA","3914","NA","NA","127426","NA","NA","NA","NA","NA","NA","3850","3910","3912","124923","NA","NA","5027","3996","3973","3996","111779","127426","NA","3912","3914","NA","NA","NA","NA","3853","3852","3853","NA","111780","lineup1","no","4","no","1366"
"","white","no","xpyriment","legacy","legacy","0","no","relative","0","0","0","0","0","4","4","0","0","0","0","4","0","0","0","0","4","0","0","4","0","0","0","4","8","0","0","0","0","0","0","0","0","0","0","0","4","12/02/17 13:40:27","Executes Python code","yes","","lineup_videoFB.osexp","C:/Users/standalone/Desktop/1.27 - Full Body Video","no","mono","no","24","no","black","no","yes","male","768","No","no","no","no","legacy","no","4","0","C:/Users/standalone/Desktop/1.27 - Full Body Video/subject-42.csv","[member5]","2","1","4","3","7","5","xpyriment","Jazzy James","3.1.6","0","2","legacy","1024","2","48000","-16","experiment","42","even","legacy","[target1]","absent","present","3914","NA","NA","3914","NA","NA","135361","NA","NA","NA","NA","NA","NA","3850","3910","3912","132881","NA","NA","5027","3996","3973","3996","128418","135361","NA","3912","3914","NA","NA","NA","NA","3853","3852","3853","NA","128418","lineup1","no","5","no","1366"
"","white","no","xpyriment","legacy","legacy","0","no","relative","0","0","0","0","0","5","5","0","0","0","0","5","0","0","0","0","5","0","0","5","0","0","0","5","9","0","0","0","0","0","0","0","0","0","0","0","5","12/02/17 13:40:27","Executes Python code","yes","","lineup_videoFB.osexp","C:/Users/standalone/Desktop/1.27 - Full Body Video","no","mono","no","24","no","black","no","yes","male","768","Not sure","no","no","no","legacy","no","5","0","C:/Users/standalone/Desktop/1.27 - Full Body Video/subject-42.csv","[member6]","2","1","4","3","7","5","xpyriment","Jazzy James","3.1.6","0","2","legacy","1024","2","48000","-16","experiment","42","even","legacy","[target1]","absent","present","3914","NA","NA","3914","NA","NA","151793","NA","NA","NA","NA","NA","NA","3850","3910","3912","149076","NA","NA","5027","3996","3973","3996","136355","151794","NA","3912","3914","NA","NA","NA","NA","3853","3852","3853","NA","136355","lineup1","no","6","no","1366"
"","white","no","xpyriment","legacy","legacy","0","no","relative","0","0","0","0","0","5","5","0","0","0","0","5","0","0","0","0","5","0","0","5","0","0","0","5","9","0","0","0","0","0","0","0","0","0","0","0","5","12/02/17 13:40:27","Executes Python code","yes","","lineup_videoFB.osexp","C:/Users/standalone/Desktop/1.27 - Full Body Video","no","mono","no","24","no","black","no","yes","male","768","Not sure","No","no","No","legacy","no","5","0","C:/Users/standalone/Desktop/1.27 - Full Body Video/subject-42.csv","[member6]","2","1","4","3","7","5","xpyriment","Jazzy James","3.1.6","0","2","legacy","1024","2","48000","-16","experiment","42","even","legacy","[target1]","absent","present","3914","NA","160188","3914","NA","NA","151793","160188","NA","170629","NA","NA","NA","3850","3910","3912","149076","NA","NA","5027","3996","3973","3996","136355","170629","151841","3912","3914","NA","163439","NA","NA","3853","3852","3853","NA","136355","lineup1","no","6","no","1366"
"","white","no","xpyriment","legacy","legacy","0","no","relative","2","2","0","2","2","5","5","0","0","0","0","5","0","0","0","1","5","0","0","5","0","1","0","5","11","0","1","2","0","0","0","0","0","0","0","0","5","12/02/17 13:40:27","Executes Python code","yes","","lineup_videoFB.osexp","C:/Users/standalone/Desktop/1.27 - Full Body Video","no","mono","no","24","no","black","no","yes","female","768","Not sure","No","no","No","legacy","no","0","0","C:/Users/standalone/Desktop/1.27 - Full Body Video/subject-42.csv","[member6]","3","6","1","4","2","5","xpyriment","Jazzy James","3.1.6","0","2","legacy","1024","2","48000","-16","experiment","42","even","legacy","[target2]","absent","present","3914","170699","160188","3914","170699","NA","151793","160188","NA","170629","NA","NA","NA","3850","3910","170694","149076","NA","NA","5027","3996","3973","3996","136355","170699","151841","170694","170699","NA","163439","NA","NA","3853","3852","3853","NA","136355","lineup1","no","6","no","1366"
"","white","no","xpyriment","legacy","legacy","0","no","relative","2","2","0","2","2","5","5","0","0","0","0","5","0","0","0","1","5","0","0","5","0","1","0","5","11","0","1","2","0","0","0","0","0","0","0","0","5","12/02/17 13:40:27","Executes Python code","yes","","lineup_videoFB.osexp","C:/Users/standalone/Desktop/1.27 - Full Body Video","no","mono","no","24","no","black","no","yes","female","768","Not sure","No","no","No","legacy","no","0","0","C:/Users/standalone/Desktop/1.27 - Full Body Video/subject-42.csv","[member6]","3","6","1","4","2","5","xpyriment","Jazzy James","3.1.6","0","2","legacy","1024","2","48000","-16","experiment","42","even","legacy","[target2]","absent","present","3914","170699","160188","3914","170699","NA","151793","160188","NA","170629","NA","NA","NA","3850","3910","170694","149076","NA","NA","5027","3996","3973","3996","136355","170740","151841","170694","170699","NA","163439","NA","NA","3853","3852","3853","NA","136355","lineup1","no","6","no","1366"
"","white","no","xpyriment","legacy","legacy","0","no","relative","2","2","1","2","2","6","6","1","1","1","0","6","0","0","0","1","6","1","1","6","1","1","1","6","13","1","1","2","1","1","1","1","0","0","0","0","6","12/02/17 13:40:27","Executes Python code","yes","","lineup_videoFB.osexp","C:/Users/standalone/Desktop/1.27 - Full Body Video","no","mono","no","24","no","black","no","yes","female","768","Not sure","no","no","no","legacy","no","0","0","C:/Users/standalone/Desktop/1.27 - Full Body Video/subject-42.csv","[member1]","3","6","1","4","2","5","xpyriment","Jazzy James","3.1.6","0","2","legacy","1024","2","48000","-16","experiment","42","even","legacy","[target2]","absent","present","3914","170699","160188","3914","170699","NA","195701","160188","NA","170629","NA","NA","NA","3850","3910","170694","193383","NA","NA","171826","170838","170816","170838","171826","195701","151841","170694","170699","NA","163439","NA","NA","3853","3852","3853","NA","174807","lineup1","no","1","no","1366"
"","white","no","xpyriment","legacy","legacy","0","50","relative","2","2","1","2","2","7","7","1","1","1","0","7","0","0","0","1","7","1","1","7","1","1","1","7","14","1","1","2","1","1","1","1","0","0","0","0","7","12/02/17 13:40:27","Executes Python code","yes","","lineup_videoFB.osexp","C:/Users/standalone/Desktop/1.27 - Full Body Video","no","mono","no","24","no","black","no","yes","female","768","Yes","no","no","no","legacy","no","1","0","C:/Users/standalone/Desktop/1.27 - Full Body Video/subject-42.csv","[member2]","3","6","1","4","2","5","xpyriment","Jazzy James","3.1.6","0","2","legacy","1024","2","48000","-16","experiment","42","even","legacy","[target2]","absent","present","3914","170699","160188","3914","170699","220252","211230","160188","NA","170629","NA","211230","NA","3850","3910","170694","208347","NA","NA","171826","170838","170816","170838","196690","220252","151841","170694","170699","NA","163439","NA","NA","3853","3852","3853","NA","196690","lineup1","no","2","no","1366"
"","white","no","xpyriment","legacy","legacy","0","no","relative","2","2","1","2","2","8","8","1","1","1","0","8","0","0","0","1","8","1","1","8","1","1","1","8","15","1","1","2","1","1","1","1","0","0","0","0","8","12/02/17 13:40:27","Executes Python code","yes","","lineup_videoFB.osexp","C:/Users/standalone/Desktop/1.27 - Full Body Video","no","mono","no","24","no","black","no","yes","female","768","No","no","no","no","legacy","no","2","0","C:/Users/standalone/Desktop/1.27 - Full Body Video/subject-42.csv","[member3]","3","6","1","4","2","5","xpyriment","Jazzy James","3.1.6","0","2","legacy","1024","2","48000","-16","experiment","42","even","legacy","[target2]","absent","present","3914","170699","160188","3914","170699","220252","228571","160188","NA","170629","NA","211230","NA","3850","3910","170694","226617","NA","NA","171826","170838","170816","170838","221297","228571","151841","170694","170699","NA","163439","NA","NA","3853","3852","3853","NA","221297","lineup1","no","3","no","1366"
"","white","no","xpyriment","legacy","legacy","0","no","relative","2","2","1","2","2","9","9","1","1","1","0","9","0","0","0","1","9","1","1","9","1","1","1","9","16","1","1","2","1","1","1","1","0","0","0","0","9","12/02/17 13:40:27","Executes Python code","yes","","lineup_videoFB.osexp","C:/Users/standalone/Desktop/1.27 - Full Body Video","no","mono","no","24","no","black","no","yes","female","768","No","no","no","no","legacy","no","3","0","C:/Users/standalone/Desktop/1.27 - Full Body Video/subject-42.csv","[member4]","3","6","1","4","2","5","xpyriment","Jazzy James","3.1.6","0","2","legacy","1024","2","48000","-16","experiment","42","even","legacy","[target2]","absent","present","3914","170699","160188","3914","170699","220252","241601","160188","NA","170629","NA","211230","NA","3850","3910","170694","239283","NA","NA","171826","170838","170816","170838","229620","241601","151841","170694","170699","NA","163439","NA","NA","3853","3852","3853","NA","229620","lineup1","no","4","no","1366"
"","white","no","xpyriment","legacy","legacy","0","no","relative","2","2","1","2","2","10","10","1","1","1","0","10","0","0","0","1","10","1","1","10","1","1","1","10","17","1","1","2","1","1","1","1","0","0","0","0","10","12/02/17 13:40:27","Executes Python code","yes","","lineup_videoFB.osexp","C:/Users/standalone/Desktop/1.27 - Full Body Video","no","mono","no","24","no","black","no","yes","female","768","No","no","no","no","legacy","no","4","0","C:/Users/standalone/Desktop/1.27 - Full Body Video/subject-42.csv","[member5]","3","6","1","4","2","5","xpyriment","Jazzy James","3.1.6","0","2","legacy","1024","2","48000","-16","experiment","42","even","legacy","[target2]","absent","present","3914","170699","160188","3914","170699","220252","248713","160188","NA","170629","NA","211230","NA","3850","3910","170694","246057","NA","NA","171826","170838","170816","170838","242634","248713","151841","170694","170699","NA","163439","NA","NA","3853","3852","3853","NA","242635","lineup1","no","5","no","1366"
"","white","no","xpyriment","legacy","legacy","0","no","relative","2","2","1","2","2","11","11","1","1","1","0","11","0","0","0","1","11","1","1","11","1","1","1","11","18","1","1","2","1","1","1","1","0","0","0","0","11","12/02/17 13:40:27","Executes Python code","yes","","lineup_videoFB.osexp","C:/Users/standalone/Desktop/1.27 - Full Body Video","no","mono","no","24","no","black","no","yes","female","768","No","no","no","no","legacy","no","5","0","C:/Users/standalone/Desktop/1.27 - Full Body Video/subject-42.csv","[member6]","3","6","1","4","2","5","xpyriment","Jazzy James","3.1.6","0","2","legacy","1024","2","48000","-16","experiment","42","even","legacy","[target2]","absent","present","3914","170699","160188","3914","170699","220252","255072","160188","NA","170629","NA","211230","NA","3850","3910","170694","252649","NA","NA","171826","170838","170816","170838","249765","255072","151841","170694","170699","NA","163439","NA","NA","3853","3852","3853","NA","249765","lineup1","no","6","no","1366"
"","white","no","xpyriment","legacy","legacy","0","no","relative","2","2","1","2","2","11","11","1","1","1","0","11","0","0","0","1","11","1","1","11","1","1","1","11","18","1","1","2","1","1","1","1","0","0","0","0","11","12/02/17 13:40:27","Executes Python code","yes","","lineup_videoFB.osexp","C:/Users/standalone/Desktop/1.27 - Full Body Video","no","mono","no","24","no","black","no","yes","female","768","No","Yes","One","No","legacy","no","5","0","C:/Users/standalone/Desktop/1.27 - Full Body Video/subject-42.csv","[member6]","3","6","1","4","2","5","xpyriment","Jazzy James","3.1.6","0","2","legacy","1024","2","48000","-16","experiment","42","even","legacy","[target2]","absent","present","3914","170699","262991","3914","170699","220252","255072","258730","262991","278007","NA","211230","NA","3850","3910","170694","252649","NA","NA","171826","170838","170816","170838","249765","278007","255117","170694","170699","258730","266616","NA","NA","3853","3852","3853","NA","249765","lineup1","no","6","no","1366"
"","white","no","xpyriment","legacy","legacy","0","no","relative","2","2","1","2","2","11","11","1","1","1","0","11","0","0","0","1","11","1","1","11","1","1","1","11","18","1","1","2","1","1","1","1","0","0","0","0","11","12/02/17 13:40:27","Executes Python code","yes","","lineup_videoFB.osexp","C:/Users/standalone/Desktop/1.27 - Full Body Video","no","mono","no","24","no","black","no","yes","female","768","No","Yes","One","No","legacy","1pm","5","0","C:/Users/standalone/Desktop/1.27 - Full Body Video/subject-42.csv","[member6]","3","6","1","4","2","5","xpyriment","Jazzy James","3.1.6","0","2","legacy","1024","2","48000","-16","experiment","42","even","legacy","[target2]","absent","present","3914","170699","262991","3914","170699","220252","255072","258730","262991","278007","282559","211230","282559","3850","3910","170694","252649","NA","NA","171826","170838","170816","170838","249765","284086","255117","170694","170699","258730","266616","NA","NA","3853","3852","3853","278074","249765","lineup1","no","6","no","1366"
