"_prepare","background","bidi","canvas_backend","clock_backend","color_backend","compensation","confidence_immediate","coordinates","count_TA_sequence_setting","count_TP_sequence_setting","count_admin_check","count_check_TA","count_check_TP","count_check_confidence_imm","count_check_identification","count_check_made_identification","count_check_multiple_identification","count_check_proceeding_identification","count_check_time_of_exposure","count_confidence_imm","count_end_of_experiment","count_experiment","count_gender_lineup_loop","count_gender_randomization_sequence","count_identification_task","count_instructions_after_multiple","count_instructions_after_proceed_identification","count_instructions_before_view","count_lineup_loop","count_lineup_procedure_loop","count_lineup_procedure_sequence","count_lineup_sequence","count_logger","count_made_identification","count_member_randomization_loop","count_member_randomization_sequence","count_multiple_identification","count_proceed_identification","count_repeat_lineup_sequence_identification","count_repeat_lineup_sequence_multiple","count_target_setting","count_target_setting_loop","count_target_setting_sequence","count_time_of_exposure","count_video","datetime","description","disable_garbage_collection","empty_column","experiment_file","experiment_path","font_bold","font_family","font_italic","font_size","font_underline","foreground","form_clicks","fullscreen","gender","height","identification","identification_made","identification_multiple","identification_proceed","keyboard_backend","lecture_time","live_row","live_row_target_setting_loop","logfile","member","member1","member2","member3","member4","member5","member6","mouse_backend","opensesame_codename","opensesame_version","repeat_cycle","round_decimals","sampler_backend","sound_buf_size","sound_channels","sound_freq","sound_sample_size","start","subject_nr","subject_parity","synth_backend","target","target1","target2","time_TA_sequence_setting","time_TP_sequence_setting","time_admin_check","time_check_TA","time_check_TP","time_check_confidence_imm","time_check_identification","time_check_made_identification","time_check_multiple_identification","time_check_proceeding_identification","time_check_time_of_exposure","time_confidence_imm","time_end_of_experiment","time_experiment","time_gender_lineup_loop","time_gender_randomization_sequence","time_identification_task","time_instructions_after_multiple","time_instructions_after_proceed_identification","time_instructions_before_view","time_lineup_loop","time_lineup_procedure_loop","time_lineup_procedure_sequence","time_lineup_sequence","time_logger","time_made_identification","time_member_randomization_loop","time_member_randomization_sequence","time_multiple_identification","time_proceed_identification","time_repeat_lineup_sequence_identification","time_repeat_lineup_sequence_multiple","time_target_setting","time_target_setting_loop","time_target_setting_sequence","time_time_of_exposure","time_video","title","transparent_variables","trial","uniform_coordinates","width"
"","white","no","xpyriment","legacy","legacy","0","NA","relative","NA","NA","NA","NA","NA","NA","NA","NA","NA","NA","0","NA","0","0","0","NA","NA","NA","NA","NA","NA","NA","NA","NA","1","NA","NA","NA","NA","NA","NA","NA","0","0","0","0","NA","12/02/17 11:14:43","Executes Python code","yes","","lineup_videoFB.osexp","C:/Users/standalone/Desktop/1.27 - Full Body Video","no","mono","no","24","no","black","no","yes","NA","768","NA","NA","NA","NA","legacy","no","0","0","C:/Users/standalone/Desktop/1.27 - Full Body Video/subject-35.csv","NA","NA","NA","NA","NA","NA","NA","xpyriment","Jazzy James","3.1.6","0","2","legacy","1024","2","48000","-16","experiment","35","odd","legacy","NA","present","absent","NA","NA","NA","NA","NA","NA","NA","NA","NA","NA","NA","NA","NA","3530","NA","NA","NA","NA","NA","NA","NA","NA","NA","NA","3532","NA","NA","NA","NA","NA","NA","NA","3532","3530","3531","NA","NA","lineup1","no","NA","no","1366"
"","white","no","xpyriment","legacy","legacy","0","NA","relative","2","2","NA","2","2","NA","NA","NA","NA","NA","0","NA","0","0","0","0","NA","NA","NA","NA","NA","0","NA","NA","4","NA","0","2","NA","NA","NA","NA","0","0","0","0","NA","12/02/17 11:14:43","Executes Python code","yes","","lineup_videoFB.osexp","C:/Users/standalone/Desktop/1.27 - Full Body Video","no","mono","no","24","no","black","no","yes","male","768","NA","NA","NA","NA","legacy","no","0","0","C:/Users/standalone/Desktop/1.27 - Full Body Video/subject-35.csv","NA","5","3","4","1","6","2","xpyriment","Jazzy James","3.1.6","0","2","legacy","1024","2","48000","-16","experiment","35","odd","legacy","[target1]","present","absent","NA","3595","NA","NA","3595","NA","NA","NA","NA","NA","NA","NA","NA","3530","3584","3588","NA","NA","NA","NA","NA","NA","NA","NA","3595","NA","3588","3595","NA","NA","NA","NA","3532","3530","3531","NA","NA","lineup1","no","NA","no","1366"
"","white","no","xpyriment","legacy","legacy","0","NA","relative","2","2","NA","2","2","NA","NA","NA","NA","NA","0","NA","0","0","0","0","NA","NA","NA","NA","NA","0","NA","NA","4","NA","0","2","NA","NA","NA","NA","0","0","0","0","NA","12/02/17 11:14:43","Executes Python code","yes","","lineup_videoFB.osexp","C:/Users/standalone/Desktop/1.27 - Full Body Video","no","mono","no","24","no","black","no","yes","male","768","NA","NA","NA","NA","legacy","no","0","0","C:/Users/standalone/Desktop/1.27 - Full Body Video/subject-35.csv","NA","5","3","4","1","6","2","xpyriment","Jazzy James","3.1.6","0","2","legacy","1024","2","48000","-16","experiment","35","odd","legacy","[target1]","present","absent","NA","3595","NA","NA","3595","NA","NA","NA","NA","NA","NA","NA","NA","3530","3584","3588","NA","NA","NA","NA","NA","NA","NA","NA","3638","NA","3588","3595","NA","NA","NA","NA","3532","3530","3531","NA","NA","lineup1","no","NA","no","1366"
"","white","no","xpyriment","legacy","legacy","0","NA","relative","2","2","NA","2","2","NA","NA","NA","NA","NA","0","NA","0","0","0","0","NA","NA","NA","NA","NA","0","NA","NA","4","NA","0","2","NA","NA","NA","NA","0","0","0","0","NA","12/02/17 11:14:43","Executes Python code","yes","","lineup_videoFB.osexp","C:/Users/standalone/Desktop/1.27 - Full Body Video","no","mono","no","24","no","black","no","yes","male","768","NA","NA","NA","NA","legacy","no","0","0","C:/Users/standalone/Desktop/1.27 - Full Body Video/subject-35.csv","NA","5","3","4","1","6","2","xpyriment","Jazzy James","3.1.6","0","2","legacy","1024","2","48000","-16","experiment","35","odd","legacy","[target1]","present","absent","NA","3595","NA","NA","3595","NA","NA","NA","NA","NA","NA","NA","NA","3530","3584","3588","NA","NA","NA","NA","NA","NA","NA","NA","3672","NA","3588","3595","NA","NA","NA","NA","3532","3530","3531","NA","NA","lineup1","no","NA","no","1366"
"","white","no","xpyriment","legacy","legacy","0","no","relative","2","2","0","2","2","0","0","0","0","0","0","0","0","0","0","0","0","0","0","0","0","0","0","0","6","0","0","2","0","0","0","0","0","0","0","0","0","12/02/17 11:14:43","Executes Python code","yes","","lineup_videoFB.osexp","C:/Users/standalone/Desktop/1.27 - Full Body Video","no","mono","no","24","no","black","no","yes","male","768","No","no","no","no","legacy","no","0","0","C:/Users/standalone/Desktop/1.27 - Full Body Video/subject-35.csv","[member1]","5","3","4","1","6","2","xpyriment","Jazzy James","3.1.6","0","2","legacy","1024","2","48000","-16","experiment","35","odd","legacy","[target1]","present","absent","NA","3595","NA","NA","3595","NA","59391","NA","NA","NA","NA","NA","NA","3530","3584","3588","53923","NA","NA","4851","3734","3709","3734","4850","59392","NA","3588","3595","NA","NA","NA","NA","3532","3530","3531","NA","48327","lineup1","no","1","no","1366"
"","white","no","xpyriment","legacy","legacy","0","no","relative","2","2","0","2","2","1","1","0","0","0","0","1","0","0","0","0","1","0","0","1","0","0","0","1","7","0","0","2","0","0","0","0","0","0","0","0","1","12/02/17 11:14:43","Executes Python code","yes","","lineup_videoFB.osexp","C:/Users/standalone/Desktop/1.27 - Full Body Video","no","mono","no","24","no","black","no","yes","male","768","No","no","no","no","legacy","no","1","0","C:/Users/standalone/Desktop/1.27 - Full Body Video/subject-35.csv","[member2]","5","3","4","1","6","2","xpyriment","Jazzy James","3.1.6","0","2","legacy","1024","2","48000","-16","experiment","35","odd","legacy","[target1]","present","absent","NA","3595","NA","NA","3595","NA","69530","NA","NA","NA","NA","NA","NA","3530","3584","3588","66649","NA","NA","4851","3734","3709","3734","60398","69530","NA","3588","3595","NA","NA","NA","NA","3532","3530","3531","NA","60399","lineup1","no","2","no","1366"
"","white","no","xpyriment","legacy","legacy","0","no","relative","2","2","0","2","2","2","2","0","0","0","0","2","0","0","0","0","2","0","0","2","0","0","0","2","8","0","0","2","0","0","0","0","0","0","0","0","2","12/02/17 11:14:43","Executes Python code","yes","","lineup_videoFB.osexp","C:/Users/standalone/Desktop/1.27 - Full Body Video","no","mono","no","24","no","black","no","yes","male","768","No","no","no","no","legacy","no","2","0","C:/Users/standalone/Desktop/1.27 - Full Body Video/subject-35.csv","[member3]","5","3","4","1","6","2","xpyriment","Jazzy James","3.1.6","0","2","legacy","1024","2","48000","-16","experiment","35","odd","legacy","[target1]","present","absent","NA","3595","NA","NA","3595","NA","79293","NA","NA","NA","NA","NA","NA","3530","3584","3588","76616","NA","NA","4851","3734","3709","3734","70500","79293","NA","3588","3595","NA","NA","NA","NA","3532","3530","3531","NA","70500","lineup1","no","3","no","1366"
"","white","no","xpyriment","legacy","legacy","0","no","relative","2","2","0","2","2","3","3","0","0","0","0","3","0","0","0","0","3","0","0","3","0","0","0","3","9","0","0","2","0","0","0","0","0","0","0","0","3","12/02/17 11:14:43","Executes Python code","yes","","lineup_videoFB.osexp","C:/Users/standalone/Desktop/1.27 - Full Body Video","no","mono","no","24","no","black","no","yes","male","768","No","no","no","no","legacy","no","3","0","C:/Users/standalone/Desktop/1.27 - Full Body Video/subject-35.csv","[member4]","5","3","4","1","6","2","xpyriment","Jazzy James","3.1.6","0","2","legacy","1024","2","48000","-16","experiment","35","odd","legacy","[target1]","present","absent","NA","3595","NA","NA","3595","NA","87999","NA","NA","NA","NA","NA","NA","3530","3584","3588","85498","NA","NA","4851","3734","3709","3734","80295","87999","NA","3588","3595","NA","NA","NA","NA","3532","3530","3531","NA","80295","lineup1","no","4","no","1366"
"","white","no","xpyriment","legacy","legacy","0","100","relative","2","2","0","2","2","4","4","0","0","0","0","4","0","0","0","0","4","0","0","4","0","0","0","4","10","0","0","2","0","0","0","0","0","0","0","0","4","12/02/17 11:14:43","Executes Python code","yes","","lineup_videoFB.osexp","C:/Users/standalone/Desktop/1.27 - Full Body Video","no","mono","no","24","no","black","no","yes","male","768","Yes","no","no","no","legacy","no","4","0","C:/Users/standalone/Desktop/1.27 - Full Body Video/subject-35.csv","[member5]","5","3","4","1","6","2","xpyriment","Jazzy James","3.1.6","0","2","legacy","1024","2","48000","-16","experiment","35","odd","legacy","[target1]","present","absent","NA","3595","NA","NA","3595","102750","95671","NA","NA","NA","NA","95671","NA","3530","3584","3588","92828","NA","NA","4851","3734","3709","3734","88997","102750","NA","3588","3595","NA","NA","NA","NA","3532","3530","3531","NA","88998","lineup1","no","5","no","1366"
"","white","no","xpyriment","legacy","legacy","0","no","relative","2","2","0","2","2","5","5","0","0","0","0","5","0","0","0","0","5","0","0","5","0","0","0","5","11","0","0","2","0","0","0","0","0","0","0","0","5","12/02/17 11:14:43","Executes Python code","yes","","lineup_videoFB.osexp","C:/Users/standalone/Desktop/1.27 - Full Body Video","no","mono","no","24","no","black","no","yes","male","768","No","no","no","no","legacy","no","5","0","C:/Users/standalone/Desktop/1.27 - Full Body Video/subject-35.csv","[member6]","5","3","4","1","6","2","xpyriment","Jazzy James","3.1.6","0","2","legacy","1024","2","48000","-16","experiment","35","odd","legacy","[target1]","present","absent","NA","3595","NA","NA","3595","102750","109252","NA","NA","NA","NA","95671","NA","3530","3584","3588","106984","NA","NA","4851","3734","3709","3734","103703","109252","NA","3588","3595","NA","NA","NA","NA","3532","3530","3531","NA","103703","lineup1","no","6","no","1366"
"","white","no","xpyriment","legacy","legacy","0","no","relative","2","2","0","2","2","5","5","0","0","0","0","5","0","0","0","0","5","0","0","5","0","0","0","5","11","0","0","2","0","0","0","0","0","0","0","0","5","12/02/17 11:14:43","Executes Python code","yes","","lineup_videoFB.osexp","C:/Users/standalone/Desktop/1.27 - Full Body Video","no","mono","no","24","no","black","no","yes","male","768","No","Yes","One","No","legacy","no","5","0","C:/Users/standalone/Desktop/1.27 - Full Body Video/subject-35.csv","[member6]","5","3","4","1","6","2","xpyriment","Jazzy James","3.1.6","0","2","legacy","1024","2","48000","-16","experiment","35","odd","legacy","[target1]","present","absent","NA","3595","118062","NA","3595","102750","109252","114216","118062","128967","NA","95671","NA","3530","3584","3588","106984","NA","NA","4851","3734","3709","3734","103703","128967","109316","3588","3595","114216","122069","NA","NA","3532","3530","3531","NA","103703","lineup1","no","6","no","1366"
"","white","no","xpyriment","legacy","legacy","0","no","relative","3","3","0","3","3","5","5","0","0","0","0","5","0","0","0","1","5","0","0","5","0","1","0","5","12","0","1","3","0","0","0","0","0","0","0","0","5","12/02/17 11:14:43","Executes Python code","yes","","lineup_videoFB.osexp","C:/Users/standalone/Desktop/1.27 - Full Body Video","no","mono","no","24","no","black","no","yes","female","768","No","Yes","One","No","legacy","no","0","0","C:/Users/standalone/Desktop/1.27 - Full Body Video/subject-35.csv","[member6]","1","4","7","3","2","5","xpyriment","Jazzy James","3.1.6","0","2","legacy","1024","2","48000","-16","experiment","35","odd","legacy","[target2]","present","absent","129036","3595","118062","129036","3595","102750","109252","114216","118062","128967","NA","95671","NA","3530","3584","129034","106984","NA","NA","4851","3734","3709","3734","103703","129036","109316","129034","129036","114216","122069","NA","NA","3532","3530","3531","NA","103703","lineup1","no","6","no","1366"
"","white","no","xpyriment","legacy","legacy","0","no","relative","3","3","1","3","3","6","6","1","1","1","0","6","0","0","0","1","6","1","1","6","1","1","1","6","14","1","1","3","1","1","1","1","0","0","0","0","6","12/02/17 11:14:43","Executes Python code","yes","","lineup_videoFB.osexp","C:/Users/standalone/Desktop/1.27 - Full Body Video","no","mono","no","24","no","black","no","yes","female","768","No","no","no","no","legacy","no","0","0","C:/Users/standalone/Desktop/1.27 - Full Body Video/subject-35.csv","[member1]","1","4","7","3","2","5","xpyriment","Jazzy James","3.1.6","0","2","legacy","1024","2","48000","-16","experiment","35","odd","legacy","[target2]","present","absent","129036","3595","118062","129036","3595","102750","142378","114216","118062","128967","NA","95671","NA","3530","3584","129034","140097","NA","NA","130083","129095","129070","129095","130082","142378","109316","129034","129036","114216","122069","NA","NA","3532","3530","3531","NA","136697","lineup1","no","1","no","1366"
"","white","no","xpyriment","legacy","legacy","0","no","relative","3","3","1","3","3","7","7","1","1","1","0","7","0","0","0","1","7","1","1","7","1","1","1","7","15","1","1","3","1","1","1","1","0","0","0","0","7","12/02/17 11:14:43","Executes Python code","yes","","lineup_videoFB.osexp","C:/Users/standalone/Desktop/1.27 - Full Body Video","no","mono","no","24","no","black","no","yes","female","768","Not sure","no","no","no","legacy","no","1","0","C:/Users/standalone/Desktop/1.27 - Full Body Video/subject-35.csv","[member2]","1","4","7","3","2","5","xpyriment","Jazzy James","3.1.6","0","2","legacy","1024","2","48000","-16","experiment","35","odd","legacy","[target2]","present","absent","129036","3595","118062","129036","3595","102750","190238","114216","118062","128967","NA","95671","NA","3530","3584","129034","172450","NA","NA","130083","129095","129070","129095","143442","190238","109316","129034","129036","114216","122069","NA","NA","3532","3530","3531","NA","143442","lineup1","no","2","no","1366"
"","white","no","xpyriment","legacy","legacy","0","no","relative","3","3","1","3","3","8","8","1","1","1","0","8","0","0","0","1","8","1","1","8","1","1","1","8","16","1","1","3","1","1","1","1","0","0","0","0","8","12/02/17 11:14:43","Executes Python code","yes","","lineup_videoFB.osexp","C:/Users/standalone/Desktop/1.27 - Full Body Video","no","mono","no","24","no","black","no","yes","female","768","No","no","no","no","legacy","no","2","0","C:/Users/standalone/Desktop/1.27 - Full Body Video/subject-35.csv","[member3]","1","4","7","3","2","5","xpyriment","Jazzy James","3.1.6","0","2","legacy","1024","2","48000","-16","experiment","35","odd","legacy","[target2]","present","absent","129036","3595","118062","129036","3595","102750","195582","114216","118062","128967","NA","95671","NA","3530","3584","129034","192987","NA","NA","130083","129095","129070","129095","191232","195582","109316","129034","129036","114216","122069","NA","NA","3532","3530","3531","NA","191232","lineup1","no","3","no","1366"
"","white","no","xpyriment","legacy","legacy","0","no","relative","3","3","1","3","3","9","9","1","1","1","0","9","0","0","0","1","9","1","1","9","1","1","1","9","17","1","1","3","1","1","1","1","0","0","0","0","9","12/02/17 11:14:43","Executes Python code","yes","","lineup_videoFB.osexp","C:/Users/standalone/Desktop/1.27 - Full Body Video","no","mono","no","24","no","black","no","yes","female","768","No","no","no","no","legacy","no","3","0","C:/Users/standalone/Desktop/1.27 - Full Body Video/subject-35.csv","[member4]","1","4","7","3","2","5","xpyriment","Jazzy James","3.1.6","0","2","legacy","1024","2","48000","-16","experiment","35","odd","legacy","[target2]","present","absent","129036","3595","118062","129036","3595","102750","200324","114216","118062","128967","NA","95671","NA","3530","3584","129034","198096","NA","NA","130083","129095","129070","129095","196621","200324","109316","129034","129036","114216","122069","NA","NA","3532","3530","3531","NA","196621","lineup1","no","4","no","1366"
"","white","no","xpyriment","legacy","legacy","0","no","relative","3","3","1","3","3","10","10","1","1","1","0","10","0","0","0","1","10","1","1","10","1","1","1","10","18","1","1","3","1","1","1","1","0","0","0","0","10","12/02/17 11:14:43","Executes Python code","yes","","lineup_videoFB.osexp","C:/Users/standalone/Desktop/1.27 - Full Body Video","no","mono","no","24","no","black","no","yes","female","768","No","no","no","no","legacy","no","4","0","C:/Users/standalone/Desktop/1.27 - Full Body Video/subject-35.csv","[member5]","1","4","7","3","2","5","xpyriment","Jazzy James","3.1.6","0","2","legacy","1024","2","48000","-16","experiment","35","odd","legacy","[target2]","present","absent","129036","3595","118062","129036","3595","102750","204671","114216","118062","128967","NA","95671","NA","3530","3584","129034","202460","NA","NA","130083","129095","129070","129095","201342","204671","109316","129034","129036","114216","122069","NA","NA","3532","3530","3531","NA","201342","lineup1","no","5","no","1366"
"","white","no","xpyriment","legacy","legacy","0","no","relative","3","3","1","3","3","11","11","1","1","1","0","11","0","0","0","1","11","1","1","11","1","1","1","11","19","1","1","3","1","1","1","1","0","0","0","0","11","12/02/17 11:14:43","Executes Python code","yes","","lineup_videoFB.osexp","C:/Users/standalone/Desktop/1.27 - Full Body Video","no","mono","no","24","no","black","no","yes","female","768","No","no","no","no","legacy","no","5","0","C:/Users/standalone/Desktop/1.27 - Full Body Video/subject-35.csv","[member6]","1","4","7","3","2","5","xpyriment","Jazzy James","3.1.6","0","2","legacy","1024","2","48000","-16","experiment","35","odd","legacy","[target2]","present","absent","129036","3595","118062","129036","3595","102750","209103","114216","118062","128967","NA","95671","NA","3530","3584","129034","206705","NA","NA","130083","129095","129070","129095","205669","209103","109316","129034","129036","114216","122069","NA","NA","3532","3530","3531","NA","205669","lineup1","no","6","no","1366"
"","white","no","xpyriment","legacy","legacy","0","no","relative","3","3","1","3","3","11","11","1","1","1","0","11","0","0","0","1","11","1","1","11","1","1","1","11","19","1","1","3","1","1","1","1","0","0","0","0","11","12/02/17 11:14:43","Executes Python code","yes","","lineup_videoFB.osexp","C:/Users/standalone/Desktop/1.27 - Full Body Video","no","mono","no","24","no","black","no","yes","female","768","No","No","no","No","legacy","no","5","0","C:/Users/standalone/Desktop/1.27 - Full Body Video/subject-35.csv","[member6]","1","4","7","3","2","5","xpyriment","Jazzy James","3.1.6","0","2","legacy","1024","2","48000","-16","experiment","35","odd","legacy","[target2]","present","absent","129036","3595","216354","129036","3595","102750","209103","216354","118062","227358","NA","95671","NA","3530","3584","129034","206705","NA","NA","130083","129095","129070","129095","205669","227358","209144","129034","129036","114216","219587","NA","NA","3532","3530","3531","NA","205669","lineup1","no","6","no","1366"
"","white","no","xpyriment","legacy","legacy","0","no","relative","3","3","1","3","3","11","11","1","1","1","0","11","0","0","0","1","11","1","1","11","1","1","1","11","19","1","1","3","1","1","1","1","0","0","0","0","11","12/02/17 11:14:43","Executes Python code","yes","","lineup_videoFB.osexp","C:/Users/standalone/Desktop/1.27 - Full Body Video","no","mono","no","24","no","black","no","yes","female","768","No","No","no","No","legacy","10am","5","0","C:/Users/standalone/Desktop/1.27 - Full Body Video/subject-35.csv","[member6]","1","4","7","3","2","5","xpyriment","Jazzy James","3.1.6","0","2","legacy","1024","2","48000","-16","experiment","35","odd","legacy","[target2]","present","absent","129036","3595","216354","129036","3595","102750","209103","216354","118062","227358","230733","95671","230733","3530","3584","129034","206705","NA","NA","130083","129095","129070","129095","205669","232680","209144","129034","129036","114216","219587","NA","NA","3532","3530","3531","227419","205669","lineup1","no","6","no","1366"
