"_prepare","background","bidi","canvas_backend","clock_backend","color_backend","compensation","confidence_immediate","coordinates","count_TA_sequence_setting","count_TP_sequence_setting","count_admin_check","count_check_TA","count_check_TP","count_check_confidence_imm","count_check_identification","count_check_made_identification","count_check_multiple_identification","count_check_proceeding_identification","count_confidence_imm","count_end_of_experiment","count_experiment","count_gender_lineup_loop","count_gender_randomization_sequence","count_identification_task","count_instructions_after_multiple","count_instructions_after_proceed_identification","count_instructions_before_view","count_lineup_loop","count_lineup_procedure_loop","count_lineup_procedure_sequence","count_lineup_sequence","count_logger","count_made_identification","count_member_randomization_loop","count_member_randomization_sequence","count_multiple_identification","count_proceed_identification","count_repeat_lineup_sequence_identification","count_repeat_lineup_sequence_multiple","count_target_setting","count_target_setting_loop","count_target_setting_sequence","count_video","datetime","description","disable_garbage_collection","empty_column","experiment_file","experiment_path","font_bold","font_family","font_italic","font_size","font_underline","foreground","form_clicks","fullscreen","gender","height","identification","identification_made","identification_multiple","identification_proceed","keyboard_backend","live_row","live_row_target_setting_loop","logfile","member","member1","member2","member3","member4","member5","member6","mouse_backend","opensesame_codename","opensesame_version","repeat_cycle","round_decimals","sampler_backend","sound_buf_size","sound_channels","sound_freq","sound_sample_size","start","subject_nr","subject_parity","synth_backend","target","target1","target2","time_TA_sequence_setting","time_TP_sequence_setting","time_admin_check","time_check_TA","time_check_TP","time_check_confidence_imm","time_check_identification","time_check_made_identification","time_check_multiple_identification","time_check_proceeding_identification","time_confidence_imm","time_end_of_experiment","time_experiment","time_gender_lineup_loop","time_gender_randomization_sequence","time_identification_task","time_instructions_after_multiple","time_instructions_after_proceed_identification","time_instructions_before_view","time_lineup_loop","time_lineup_procedure_loop","time_lineup_procedure_sequence","time_lineup_sequence","time_logger","time_made_identification","time_member_randomization_loop","time_member_randomization_sequence","time_multiple_identification","time_proceed_identification","time_repeat_lineup_sequence_identification","time_repeat_lineup_sequence_multiple","time_target_setting","time_target_setting_loop","time_target_setting_sequence","time_video","title","transparent_variables","trial","uniform_coordinates","width"
"","white","no","xpyriment","legacy","legacy","0","NA","relative","NA","NA","NA","NA","NA","NA","NA","NA","NA","NA","NA","0","0","0","NA","NA","NA","NA","NA","NA","NA","NA","NA","1","NA","NA","NA","NA","NA","NA","NA","0","0","0","NA","03/21/18 15:00:01","Executes Python code","yes","","lineup_videoFB_W.osexp","C:/Users/standalone/Desktop/FB 21 Mar 1.24","no","mono","no","24","no","black","no","yes","NA","768","NA","NA","NA","NA","legacy","0","0","C:/Users/standalone/Desktop/FB 21 Mar 1.24/subject-100.csv","NA","NA","NA","NA","NA","NA","NA","xpyriment","Jazzy James","3.1.6","0","2","legacy","1024","2","48000","-16","experiment","100","even","legacy","NA","absent","present","NA","NA","NA","NA","NA","NA","NA","NA","NA","NA","NA","NA","2433","NA","NA","NA","NA","NA","NA","NA","NA","NA","NA","2435","NA","NA","NA","NA","NA","NA","NA","2435","2433","2434","NA","lineup1","no","NA","no","1366"
"","white","no","xpyriment","legacy","legacy","0","NA","relative","1","1","NA","1","1","NA","NA","NA","NA","NA","NA","0","0","0","0","NA","NA","NA","NA","NA","0","NA","NA","3","NA","0","1","NA","NA","NA","NA","0","0","0","NA","03/21/18 15:00:01","Executes Python code","yes","","lineup_videoFB_W.osexp","C:/Users/standalone/Desktop/FB 21 Mar 1.24","no","mono","no","24","no","black","no","yes","female","768","NA","NA","NA","NA","legacy","0","0","C:/Users/standalone/Desktop/FB 21 Mar 1.24/subject-100.csv","NA","3","5","2","6","1","4","xpyriment","Jazzy James","3.1.6","0","2","legacy","1024","2","48000","-16","experiment","100","even","legacy","[target2]","absent","present","NA","2507","NA","NA","2507","NA","NA","NA","NA","NA","NA","NA","2433","2499","2503","NA","NA","NA","NA","NA","NA","NA","NA","2507","NA","2503","2507","NA","NA","NA","NA","2435","2433","2434","NA","lineup1","no","NA","no","1366"
"","white","no","xpyriment","legacy","legacy","0","NA","relative","1","1","NA","1","1","NA","NA","NA","NA","NA","NA","0","0","0","0","NA","NA","NA","NA","NA","0","NA","NA","3","NA","0","1","NA","NA","NA","NA","0","0","0","NA","03/21/18 15:00:01","Executes Python code","yes","","lineup_videoFB_W.osexp","C:/Users/standalone/Desktop/FB 21 Mar 1.24","no","mono","no","24","no","black","no","yes","female","768","NA","NA","NA","NA","legacy","0","0","C:/Users/standalone/Desktop/FB 21 Mar 1.24/subject-100.csv","NA","3","5","2","6","1","4","xpyriment","Jazzy James","3.1.6","0","2","legacy","1024","2","48000","-16","experiment","100","even","legacy","[target2]","absent","present","NA","2507","NA","NA","2507","NA","NA","NA","NA","NA","NA","NA","2433","2499","2503","NA","NA","NA","NA","NA","NA","NA","NA","2556","NA","2503","2507","NA","NA","NA","NA","2435","2433","2434","NA","lineup1","no","NA","no","1366"
"","white","no","xpyriment","legacy","legacy","0","no","relative","1","1","0","1","1","0","0","0","0","0","0","0","0","0","0","0","0","0","0","0","0","0","0","5","0","0","1","0","0","0","0","0","0","0","0","03/21/18 15:00:01","Executes Python code","yes","","lineup_videoFB_W.osexp","C:/Users/standalone/Desktop/FB 21 Mar 1.24","no","mono","no","24","no","black","no","yes","female","768","No","no","no","no","legacy","0","0","C:/Users/standalone/Desktop/FB 21 Mar 1.24/subject-100.csv","[member1]","3","5","2","6","1","4","xpyriment","Jazzy James","3.1.6","0","2","legacy","1024","2","48000","-16","experiment","100","even","legacy","[target2]","absent","present","NA","2507","NA","NA","2507","NA","47842","NA","NA","NA","NA","NA","2433","2499","2503","41490","NA","NA","3963","2614","2586","2614","3963","47842","NA","2503","2507","NA","NA","NA","NA","2435","2433","2434","10431","lineup1","no","1","no","1366"
"","white","no","xpyriment","legacy","legacy","0","no","relative","1","1","0","1","1","1","1","0","0","0","1","0","0","0","0","1","0","0","1","0","0","0","1","6","0","0","1","0","0","0","0","0","0","0","1","03/21/18 15:00:01","Executes Python code","yes","","lineup_videoFB_W.osexp","C:/Users/standalone/Desktop/FB 21 Mar 1.24","no","mono","no","24","no","black","no","yes","female","768","No","no","no","no","legacy","1","0","C:/Users/standalone/Desktop/FB 21 Mar 1.24/subject-100.csv","[member2]","3","5","2","6","1","4","xpyriment","Jazzy James","3.1.6","0","2","legacy","1024","2","48000","-16","experiment","100","even","legacy","[target2]","absent","present","NA","2507","NA","NA","2507","NA","76607","NA","NA","NA","NA","NA","2433","2499","2503","73241","NA","NA","3963","2614","2586","2614","48975","76608","NA","2503","2507","NA","NA","NA","NA","2435","2433","2434","48975","lineup1","no","2","no","1366"
"","white","no","xpyriment","legacy","legacy","0","no","relative","1","1","0","1","1","2","2","0","0","0","2","0","0","0","0","2","0","0","2","0","0","0","2","7","0","0","1","0","0","0","0","0","0","0","2","03/21/18 15:00:01","Executes Python code","yes","","lineup_videoFB_W.osexp","C:/Users/standalone/Desktop/FB 21 Mar 1.24","no","mono","no","24","no","black","no","yes","female","768","No","no","no","no","legacy","2","0","C:/Users/standalone/Desktop/FB 21 Mar 1.24/subject-100.csv","[member3]","3","5","2","6","1","4","xpyriment","Jazzy James","3.1.6","0","2","legacy","1024","2","48000","-16","experiment","100","even","legacy","[target2]","absent","present","NA","2507","NA","NA","2507","NA","107054","NA","NA","NA","NA","NA","2433","2499","2503","103910","NA","NA","3963","2614","2586","2614","77753","107054","NA","2503","2507","NA","NA","NA","NA","2435","2433","2434","77753","lineup1","no","3","no","1366"
"","white","no","xpyriment","legacy","legacy","0","no","relative","1","1","0","1","1","3","3","0","0","0","3","0","0","0","0","3","0","0","3","0","0","0","3","8","0","0","1","0","0","0","0","0","0","0","3","03/21/18 15:00:01","Executes Python code","yes","","lineup_videoFB_W.osexp","C:/Users/standalone/Desktop/FB 21 Mar 1.24","no","mono","no","24","no","black","no","yes","female","768","Not sure","no","no","no","legacy","3","0","C:/Users/standalone/Desktop/FB 21 Mar 1.24/subject-100.csv","[member4]","3","5","2","6","1","4","xpyriment","Jazzy James","3.1.6","0","2","legacy","1024","2","48000","-16","experiment","100","even","legacy","[target2]","absent","present","NA","2507","NA","NA","2507","NA","144883","NA","NA","NA","NA","NA","2433","2499","2503","139156","NA","NA","3963","2614","2586","2614","108122","144883","NA","2503","2507","NA","NA","NA","NA","2435","2433","2434","108122","lineup1","no","4","no","1366"
"","white","no","xpyriment","legacy","legacy","0","no","relative","1","1","0","1","1","4","4","0","0","0","4","0","0","0","0","4","0","0","4","0","0","0","4","9","0","0","1","0","0","0","0","0","0","0","4","03/21/18 15:00:01","Executes Python code","yes","","lineup_videoFB_W.osexp","C:/Users/standalone/Desktop/FB 21 Mar 1.24","no","mono","no","24","no","black","no","yes","female","768","No","no","no","no","legacy","4","0","C:/Users/standalone/Desktop/FB 21 Mar 1.24/subject-100.csv","[member5]","3","5","2","6","1","4","xpyriment","Jazzy James","3.1.6","0","2","legacy","1024","2","48000","-16","experiment","100","even","legacy","[target2]","absent","present","NA","2507","NA","NA","2507","NA","163700","NA","NA","NA","NA","NA","2433","2499","2503","160140","NA","NA","3963","2614","2586","2614","146045","163700","NA","2503","2507","NA","NA","NA","NA","2435","2433","2434","146045","lineup1","no","5","no","1366"
"","white","no","xpyriment","legacy","legacy","0","no","relative","1","1","0","1","1","5","5","0","0","0","5","0","0","0","0","5","0","0","5","0","0","0","5","10","0","0","1","0","0","0","0","0","0","0","5","03/21/18 15:00:01","Executes Python code","yes","","lineup_videoFB_W.osexp","C:/Users/standalone/Desktop/FB 21 Mar 1.24","no","mono","no","24","no","black","no","yes","female","768","No","no","no","no","legacy","5","0","C:/Users/standalone/Desktop/FB 21 Mar 1.24/subject-100.csv","[member6]","3","5","2","6","1","4","xpyriment","Jazzy James","3.1.6","0","2","legacy","1024","2","48000","-16","experiment","100","even","legacy","[target2]","absent","present","NA","2507","NA","NA","2507","NA","178846","NA","NA","NA","NA","NA","2433","2499","2503","176330","NA","NA","3963","2614","2586","2614","164878","178846","NA","2503","2507","NA","NA","NA","NA","2435","2433","2434","164878","lineup1","no","6","no","1366"
"","white","no","xpyriment","legacy","legacy","0","no","relative","1","1","0","1","1","5","5","0","0","0","5","0","0","0","0","5","0","0","5","0","0","0","5","10","0","0","1","0","0","0","0","0","0","0","5","03/21/18 15:00:01","Executes Python code","yes","","lineup_videoFB_W.osexp","C:/Users/standalone/Desktop/FB 21 Mar 1.24","no","mono","no","24","no","black","no","yes","female","768","No","No","no","No","legacy","5","0","C:/Users/standalone/Desktop/FB 21 Mar 1.24/subject-100.csv","[member6]","3","5","2","6","1","4","xpyriment","Jazzy James","3.1.6","0","2","legacy","1024","2","48000","-16","experiment","100","even","legacy","[target2]","absent","present","NA","2507","184519","NA","2507","NA","178846","184519","NA","202506","NA","NA","2433","2499","2503","176330","NA","NA","3963","2614","2586","2614","164878","202506","178889","2503","2507","NA","189022","NA","NA","2435","2433","2434","164878","lineup1","no","6","no","1366"
"","white","no","xpyriment","legacy","legacy","0","no","relative","2","2","0","2","2","5","5","0","0","0","5","0","0","0","1","5","0","0","5","0","1","0","5","11","0","1","2","0","0","0","0","0","0","0","5","03/21/18 15:00:01","Executes Python code","yes","","lineup_videoFB_W.osexp","C:/Users/standalone/Desktop/FB 21 Mar 1.24","no","mono","no","24","no","black","no","yes","male","768","No","No","no","No","legacy","0","0","C:/Users/standalone/Desktop/FB 21 Mar 1.24/subject-100.csv","[member6]","1","7","2","5","3","4","xpyriment","Jazzy James","3.1.6","0","2","legacy","1024","2","48000","-16","experiment","100","even","legacy","[target1]","absent","present","202574","2507","184519","202574","2507","NA","178846","184519","NA","202506","NA","NA","2433","2499","202572","176330","NA","NA","3963","2614","2586","2614","164878","202574","178889","202572","202574","NA","189022","NA","NA","2435","2433","2434","164878","lineup1","no","6","no","1366"
"","white","no","xpyriment","legacy","legacy","0","no","relative","2","2","1","2","2","6","6","1","1","1","6","0","0","0","1","6","1","1","6","1","1","1","6","13","1","1","2","1","1","1","1","0","0","0","6","03/21/18 15:00:01","Executes Python code","yes","","lineup_videoFB_W.osexp","C:/Users/standalone/Desktop/FB 21 Mar 1.24","no","mono","no","24","no","black","no","yes","male","768","No","no","no","no","legacy","0","0","C:/Users/standalone/Desktop/FB 21 Mar 1.24/subject-100.csv","[member1]","1","7","2","5","3","4","xpyriment","Jazzy James","3.1.6","0","2","legacy","1024","2","48000","-16","experiment","100","even","legacy","[target1]","absent","present","202574","2507","184519","202574","2507","NA","224622","184519","NA","202506","NA","NA","2433","2499","202572","221921","NA","NA","203726","202645","202613","202645","203726","224622","178889","202572","202574","NA","189022","NA","NA","2435","2433","2434","209879","lineup1","no","1","no","1366"
"","white","no","xpyriment","legacy","legacy","0","no","relative","2","2","1","2","2","7","7","1","1","1","7","0","0","0","1","7","1","1","7","1","1","1","7","14","1","1","2","1","1","1","1","0","0","0","7","03/21/18 15:00:01","Executes Python code","yes","","lineup_videoFB_W.osexp","C:/Users/standalone/Desktop/FB 21 Mar 1.24","no","mono","no","24","no","black","no","yes","male","768","No","no","no","no","legacy","1","0","C:/Users/standalone/Desktop/FB 21 Mar 1.24/subject-100.csv","[member2]","1","7","2","5","3","4","xpyriment","Jazzy James","3.1.6","0","2","legacy","1024","2","48000","-16","experiment","100","even","legacy","[target1]","absent","present","202574","2507","184519","202574","2507","NA","232453","184519","NA","202506","NA","NA","2433","2499","202572","228945","NA","NA","203726","202645","202613","202645","225729","232453","178889","202572","202574","NA","189022","NA","NA","2435","2433","2434","225729","lineup1","no","2","no","1366"
"","white","no","xpyriment","legacy","legacy","0","no","relative","2","2","1","2","2","8","8","1","1","1","8","0","0","0","1","8","1","1","8","1","1","1","8","15","1","1","2","1","1","1","1","0","0","0","8","03/21/18 15:00:01","Executes Python code","yes","","lineup_videoFB_W.osexp","C:/Users/standalone/Desktop/FB 21 Mar 1.24","no","mono","no","24","no","black","no","yes","male","768","No","no","no","no","legacy","2","0","C:/Users/standalone/Desktop/FB 21 Mar 1.24/subject-100.csv","[member3]","1","7","2","5","3","4","xpyriment","Jazzy James","3.1.6","0","2","legacy","1024","2","48000","-16","experiment","100","even","legacy","[target1]","absent","present","202574","2507","184519","202574","2507","NA","249690","184519","NA","202506","NA","NA","2433","2499","202572","246560","NA","NA","203726","202645","202613","202645","233510","249690","178889","202572","202574","NA","189022","NA","NA","2435","2433","2434","233510","lineup1","no","3","no","1366"
"","white","no","xpyriment","legacy","legacy","0","no","relative","2","2","1","2","2","9","9","1","1","1","9","0","0","0","1","9","1","1","9","1","1","1","9","16","1","1","2","1","1","1","1","0","0","0","9","03/21/18 15:00:01","Executes Python code","yes","","lineup_videoFB_W.osexp","C:/Users/standalone/Desktop/FB 21 Mar 1.24","no","mono","no","24","no","black","no","yes","male","768","No","no","no","no","legacy","3","0","C:/Users/standalone/Desktop/FB 21 Mar 1.24/subject-100.csv","[member4]","1","7","2","5","3","4","xpyriment","Jazzy James","3.1.6","0","2","legacy","1024","2","48000","-16","experiment","100","even","legacy","[target1]","absent","present","202574","2507","184519","202574","2507","NA","276002","184519","NA","202506","NA","NA","2433","2499","202572","272875","NA","NA","203726","202645","202613","202645","250798","276002","178889","202572","202574","NA","189022","NA","NA","2435","2433","2434","250798","lineup1","no","4","no","1366"
"","white","no","xpyriment","legacy","legacy","0","no","relative","2","2","1","2","2","10","10","1","1","1","10","0","0","0","1","10","1","1","10","1","1","1","10","17","1","1","2","1","1","1","1","0","0","0","10","03/21/18 15:00:01","Executes Python code","yes","","lineup_videoFB_W.osexp","C:/Users/standalone/Desktop/FB 21 Mar 1.24","no","mono","no","24","no","black","no","yes","male","768","Not sure","no","no","no","legacy","4","0","C:/Users/standalone/Desktop/FB 21 Mar 1.24/subject-100.csv","[member5]","1","7","2","5","3","4","xpyriment","Jazzy James","3.1.6","0","2","legacy","1024","2","48000","-16","experiment","100","even","legacy","[target1]","absent","present","202574","2507","184519","202574","2507","NA","307975","184519","NA","202506","NA","NA","2433","2499","202572","302907","NA","NA","203726","202645","202613","202645","277110","307975","178889","202572","202574","NA","189022","NA","NA","2435","2433","2434","277110","lineup1","no","5","no","1366"
"","white","no","xpyriment","legacy","legacy","0","no","relative","2","2","1","2","2","11","11","1","1","1","11","0","0","0","1","11","1","1","11","1","1","1","11","18","1","1","2","1","1","1","1","0","0","0","11","03/21/18 15:00:01","Executes Python code","yes","","lineup_videoFB_W.osexp","C:/Users/standalone/Desktop/FB 21 Mar 1.24","no","mono","no","24","no","black","no","yes","male","768","No","no","no","no","legacy","5","0","C:/Users/standalone/Desktop/FB 21 Mar 1.24/subject-100.csv","[member6]","1","7","2","5","3","4","xpyriment","Jazzy James","3.1.6","0","2","legacy","1024","2","48000","-16","experiment","100","even","legacy","[target1]","absent","present","202574","2507","184519","202574","2507","NA","333092","184519","NA","202506","NA","NA","2433","2499","202572","328648","NA","NA","203726","202645","202613","202645","309050","333092","178889","202572","202574","NA","189022","NA","NA","2435","2433","2434","309050","lineup1","no","6","no","1366"
"","white","no","xpyriment","legacy","legacy","0","no","relative","2","2","1","2","2","11","11","1","1","1","11","0","0","0","1","11","1","1","11","1","1","1","11","18","1","1","2","1","1","1","1","0","0","0","11","03/21/18 15:00:01","Executes Python code","yes","","lineup_videoFB_W.osexp","C:/Users/standalone/Desktop/FB 21 Mar 1.24","no","mono","no","24","no","black","no","yes","male","768","No","No","no","No","legacy","5","0","C:/Users/standalone/Desktop/FB 21 Mar 1.24/subject-100.csv","[member6]","1","7","2","5","3","4","xpyriment","Jazzy James","3.1.6","0","2","legacy","1024","2","48000","-16","experiment","100","even","legacy","[target1]","absent","present","202574","2507","339414","202574","2507","NA","333092","339414","NA","352304","NA","NA","2433","2499","202572","328648","NA","NA","203726","202645","202613","202645","309050","352304","333141","202572","202574","NA","347683","NA","NA","2435","2433","2434","309050","lineup1","no","6","no","1366"
"","white","no","xpyriment","legacy","legacy","0","no","relative","2","2","1","2","2","11","11","1","1","1","11","0","0","0","1","11","1","1","11","1","1","1","11","18","1","1","2","1","1","1","1","0","0","0","11","03/21/18 15:00:01","Executes Python code","yes","","lineup_videoFB_W.osexp","C:/Users/standalone/Desktop/FB 21 Mar 1.24","no","mono","no","24","no","black","no","yes","male","768","No","No","no","No","legacy","5","0","C:/Users/standalone/Desktop/FB 21 Mar 1.24/subject-100.csv","[member6]","1","7","2","5","3","4","xpyriment","Jazzy James","3.1.6","0","2","legacy","1024","2","48000","-16","experiment","100","even","legacy","[target1]","absent","present","202574","2507","339414","202574","2507","NA","333092","339414","NA","352304","NA","352368","2433","2499","202572","328648","NA","NA","203726","202645","202613","202645","309050","354783","333141","202572","202574","NA","347683","NA","NA","2435","2433","2434","309050","lineup1","no","6","no","1366"
