"_prepare","background","bidi","canvas_backend","clock_backend","color_backend","compensation","confidence_immediate","coordinates","count_TA_sequence_setting","count_TP_sequence_setting","count_admin_check","count_check_TA","count_check_TP","count_check_confidence_imm","count_check_identification","count_check_made_identification","count_check_multiple_identification","count_check_proceeding_identification","count_confidence_imm","count_end_of_experiment","count_experiment","count_gender_lineup_loop","count_gender_randomization_sequence","count_identification_task","count_instructions_after_multiple","count_instructions_after_proceed_identification","count_instructions_before_view","count_lineup_loop","count_lineup_procedure_loop","count_lineup_procedure_sequence","count_lineup_sequence","count_logger","count_made_identification","count_member_randomization_loop","count_member_randomization_sequence","count_multiple_identification","count_proceed_identification","count_repeat_lineup_sequence_identification","count_repeat_lineup_sequence_multiple","count_target_setting","count_target_setting_loop","count_target_setting_sequence","count_video","datetime","description","disable_garbage_collection","empty_column","experiment_file","experiment_path","font_bold","font_family","font_italic","font_size","font_underline","foreground","form_clicks","fullscreen","gender","height","identification","identification_made","identification_multiple","identification_proceed","keyboard_backend","live_row","live_row_target_setting_loop","logfile","member","member1","member2","member3","member4","member5","member6","mouse_backend","opensesame_codename","opensesame_version","repeat_cycle","round_decimals","sampler_backend","sound_buf_size","sound_channels","sound_freq","sound_sample_size","start","subject_nr","subject_parity","synth_backend","target","target1","target2","time_TA_sequence_setting","time_TP_sequence_setting","time_admin_check","time_check_TA","time_check_TP","time_check_confidence_imm","time_check_identification","time_check_made_identification","time_check_multiple_identification","time_check_proceeding_identification","time_confidence_imm","time_end_of_experiment","time_experiment","time_gender_lineup_loop","time_gender_randomization_sequence","time_identification_task","time_instructions_after_multiple","time_instructions_after_proceed_identification","time_instructions_before_view","time_lineup_loop","time_lineup_procedure_loop","time_lineup_procedure_sequence","time_lineup_sequence","time_logger","time_made_identification","time_member_randomization_loop","time_member_randomization_sequence","time_multiple_identification","time_proceed_identification","time_repeat_lineup_sequence_identification","time_repeat_lineup_sequence_multiple","time_target_setting","time_target_setting_loop","time_target_setting_sequence","time_video","title","transparent_variables","trial","uniform_coordinates","width"
"","white","no","xpyriment","legacy","legacy","0","NA","relative","NA","NA","NA","NA","NA","NA","NA","NA","NA","NA","NA","0","0","0","NA","NA","NA","NA","NA","NA","NA","NA","NA","1","NA","NA","NA","NA","NA","NA","NA","0","0","0","NA","03/21/18 15:21:32","Executes Python code","yes","","lineup_videoFB_W.osexp","C:/Users/standalone/Desktop/FB 21 Mar 1.24","no","mono","no","24","no","black","no","yes","NA","768","NA","NA","NA","NA","legacy","0","0","C:/Users/standalone/Desktop/FB 21 Mar 1.24/subject-103.csv","NA","NA","NA","NA","NA","NA","NA","xpyriment","Jazzy James","3.1.6","0","2","legacy","1024","2","48000","-16","experiment","103","odd","legacy","NA","present","absent","NA","NA","NA","NA","NA","NA","NA","NA","NA","NA","NA","NA","2564","NA","NA","NA","NA","NA","NA","NA","NA","NA","NA","2566","NA","NA","NA","NA","NA","NA","NA","2566","2564","2566","NA","lineup1","no","NA","no","1366"
"","white","no","xpyriment","legacy","legacy","0","NA","relative","0","0","NA","0","0","NA","NA","NA","NA","NA","NA","0","0","0","0","NA","NA","NA","NA","NA","0","NA","NA","2","NA","0","0","NA","NA","NA","NA","0","0","0","NA","03/21/18 15:21:32","Executes Python code","yes","","lineup_videoFB_W.osexp","C:/Users/standalone/Desktop/FB 21 Mar 1.24","no","mono","no","24","no","black","no","yes","male","768","NA","NA","NA","NA","legacy","0","0","C:/Users/standalone/Desktop/FB 21 Mar 1.24/subject-103.csv","NA","3","4","1","5","2","6","xpyriment","Jazzy James","3.1.6","0","2","legacy","1024","2","48000","-16","experiment","103","odd","legacy","[target1]","present","absent","NA","2623","NA","NA","2624","NA","NA","NA","NA","NA","NA","NA","2564","2619","2621","NA","NA","NA","NA","NA","NA","NA","NA","2624","NA","2621","2623","NA","NA","NA","NA","2566","2564","2566","NA","lineup1","no","NA","no","1366"
"","white","no","xpyriment","legacy","legacy","0","no","relative","0","0","0","0","0","0","0","0","0","0","0","0","0","0","0","0","0","0","0","0","0","0","0","4","0","0","0","0","0","0","0","0","0","0","0","03/21/18 15:21:32","Executes Python code","yes","","lineup_videoFB_W.osexp","C:/Users/standalone/Desktop/FB 21 Mar 1.24","no","mono","no","24","no","black","no","yes","male","768","No","no","no","no","legacy","0","0","C:/Users/standalone/Desktop/FB 21 Mar 1.24/subject-103.csv","[member1]","3","4","1","5","2","6","xpyriment","Jazzy James","3.1.6","0","2","legacy","1024","2","48000","-16","experiment","103","odd","legacy","[target1]","present","absent","NA","2623","NA","NA","2624","NA","36664","NA","NA","NA","NA","NA","2564","2619","2621","30466","NA","NA","3916","2697","2668","2697","3916","36664","NA","2621","2623","NA","NA","NA","NA","2566","2564","2566","7832","lineup1","no","1","no","1366"
"","white","no","xpyriment","legacy","legacy","0","no","relative","0","0","0","0","0","1","1","0","0","0","1","0","0","0","0","1","0","0","1","0","0","0","1","5","0","0","0","0","0","0","0","0","0","0","1","03/21/18 15:21:32","Executes Python code","yes","","lineup_videoFB_W.osexp","C:/Users/standalone/Desktop/FB 21 Mar 1.24","no","mono","no","24","no","black","no","yes","male","768","No","no","no","no","legacy","1","0","C:/Users/standalone/Desktop/FB 21 Mar 1.24/subject-103.csv","[member2]","3","4","1","5","2","6","xpyriment","Jazzy James","3.1.6","0","2","legacy","1024","2","48000","-16","experiment","103","odd","legacy","[target1]","present","absent","NA","2623","NA","NA","2624","NA","41997","NA","NA","NA","NA","NA","2564","2619","2621","39426","NA","NA","3916","2697","2668","2697","37763","41997","NA","2621","2623","NA","NA","NA","NA","2566","2564","2566","37763","lineup1","no","2","no","1366"
"","white","no","xpyriment","legacy","legacy","0","no","relative","0","0","0","0","0","2","2","0","0","0","2","0","0","0","0","2","0","0","2","0","0","0","2","6","0","0","0","0","0","0","0","0","0","0","2","03/21/18 15:21:32","Executes Python code","yes","","lineup_videoFB_W.osexp","C:/Users/standalone/Desktop/FB 21 Mar 1.24","no","mono","no","24","no","black","no","yes","male","768","No","no","no","no","legacy","2","0","C:/Users/standalone/Desktop/FB 21 Mar 1.24/subject-103.csv","[member3]","3","4","1","5","2","6","xpyriment","Jazzy James","3.1.6","0","2","legacy","1024","2","48000","-16","experiment","103","odd","legacy","[target1]","present","absent","NA","2623","NA","NA","2624","NA","47501","NA","NA","NA","NA","NA","2564","2619","2621","44356","NA","NA","3916","2697","2668","2697","43110","47501","NA","2621","2623","NA","NA","NA","NA","2566","2564","2566","43110","lineup1","no","3","no","1366"
"","white","no","xpyriment","legacy","legacy","0","no","relative","0","0","0","0","0","3","3","0","0","0","3","0","0","0","0","3","0","0","3","0","0","0","3","7","0","0","0","0","0","0","0","0","0","0","3","03/21/18 15:21:32","Executes Python code","yes","","lineup_videoFB_W.osexp","C:/Users/standalone/Desktop/FB 21 Mar 1.24","no","mono","no","24","no","black","no","yes","male","768","No","no","no","no","legacy","3","0","C:/Users/standalone/Desktop/FB 21 Mar 1.24/subject-103.csv","[member4]","3","4","1","5","2","6","xpyriment","Jazzy James","3.1.6","0","2","legacy","1024","2","48000","-16","experiment","103","odd","legacy","[target1]","present","absent","NA","2623","NA","NA","2624","NA","52958","NA","NA","NA","NA","NA","2564","2619","2621","50753","NA","NA","3916","2697","2668","2697","48590","52958","NA","2621","2623","NA","NA","NA","NA","2566","2564","2566","48590","lineup1","no","4","no","1366"
"","white","no","xpyriment","legacy","legacy","0","no","relative","0","0","0","0","0","4","4","0","0","0","4","0","0","0","0","4","0","0","4","0","0","0","4","8","0","0","0","0","0","0","0","0","0","0","4","03/21/18 15:21:32","Executes Python code","yes","","lineup_videoFB_W.osexp","C:/Users/standalone/Desktop/FB 21 Mar 1.24","no","mono","no","24","no","black","no","yes","male","768","No","no","no","no","legacy","4","0","C:/Users/standalone/Desktop/FB 21 Mar 1.24/subject-103.csv","[member5]","3","4","1","5","2","6","xpyriment","Jazzy James","3.1.6","0","2","legacy","1024","2","48000","-16","experiment","103","odd","legacy","[target1]","present","absent","NA","2623","NA","NA","2624","NA","71642","NA","NA","NA","NA","NA","2564","2619","2621","57245","NA","NA","3916","2697","2668","2697","54018","71642","NA","2621","2623","NA","NA","NA","NA","2566","2564","2566","54018","lineup1","no","5","no","1366"
"","white","no","xpyriment","legacy","legacy","0","no","relative","0","0","0","0","0","5","5","0","0","0","5","0","0","0","0","5","0","0","5","0","0","0","5","9","0","0","0","0","0","0","0","0","0","0","5","03/21/18 15:21:32","Executes Python code","yes","","lineup_videoFB_W.osexp","C:/Users/standalone/Desktop/FB 21 Mar 1.24","no","mono","no","24","no","black","no","yes","male","768","No","no","no","no","legacy","5","0","C:/Users/standalone/Desktop/FB 21 Mar 1.24/subject-103.csv","[member6]","3","4","1","5","2","6","xpyriment","Jazzy James","3.1.6","0","2","legacy","1024","2","48000","-16","experiment","103","odd","legacy","[target1]","present","absent","NA","2623","NA","NA","2624","NA","76419","NA","NA","NA","NA","NA","2564","2619","2621","74058","NA","NA","3916","2697","2668","2697","72720","76419","NA","2621","2623","NA","NA","NA","NA","2566","2564","2566","72720","lineup1","no","6","no","1366"
"","white","no","xpyriment","legacy","legacy","0","no","relative","0","0","0","0","0","5","5","0","0","0","5","0","0","0","0","5","0","0","5","0","0","0","5","9","0","0","0","0","0","0","0","0","0","0","5","03/21/18 15:21:32","Executes Python code","yes","","lineup_videoFB_W.osexp","C:/Users/standalone/Desktop/FB 21 Mar 1.24","no","mono","no","24","no","black","no","yes","male","768","No","No","no","No","legacy","5","0","C:/Users/standalone/Desktop/FB 21 Mar 1.24/subject-103.csv","[member6]","3","4","1","5","2","6","xpyriment","Jazzy James","3.1.6","0","2","legacy","1024","2","48000","-16","experiment","103","odd","legacy","[target1]","present","absent","NA","2623","83993","NA","2624","NA","76419","83993","NA","101287","NA","NA","2564","2619","2621","74058","NA","NA","3916","2697","2668","2697","72720","101287","76460","2621","2623","NA","97934","NA","NA","2566","2564","2566","72720","lineup1","no","6","no","1366"
"","white","no","xpyriment","legacy","legacy","0","no","relative","2","2","0","2","2","5","5","0","0","0","5","0","0","0","1","5","0","0","5","0","1","0","5","11","0","1","2","0","0","0","0","0","0","0","5","03/21/18 15:21:32","Executes Python code","yes","","lineup_videoFB_W.osexp","C:/Users/standalone/Desktop/FB 21 Mar 1.24","no","mono","no","24","no","black","no","yes","female","768","No","No","no","No","legacy","0","0","C:/Users/standalone/Desktop/FB 21 Mar 1.24/subject-103.csv","[member6]","2","3","4","5","1","7","xpyriment","Jazzy James","3.1.6","0","2","legacy","1024","2","48000","-16","experiment","103","odd","legacy","[target2]","present","absent","101351","2623","83993","101351","2624","NA","76419","83993","NA","101287","NA","NA","2564","2619","101346","74058","NA","NA","3916","2697","2668","2697","72720","101351","76460","101346","101351","NA","97934","NA","NA","2566","2564","2566","72720","lineup1","no","6","no","1366"
"","white","no","xpyriment","legacy","legacy","0","no","relative","2","2","0","2","2","5","5","0","0","0","5","0","0","0","1","5","0","0","5","0","1","0","5","11","0","1","2","0","0","0","0","0","0","0","5","03/21/18 15:21:32","Executes Python code","yes","","lineup_videoFB_W.osexp","C:/Users/standalone/Desktop/FB 21 Mar 1.24","no","mono","no","24","no","black","no","yes","female","768","No","No","no","No","legacy","0","0","C:/Users/standalone/Desktop/FB 21 Mar 1.24/subject-103.csv","[member6]","2","3","4","5","1","7","xpyriment","Jazzy James","3.1.6","0","2","legacy","1024","2","48000","-16","experiment","103","odd","legacy","[target2]","present","absent","101351","2623","83993","101351","2624","NA","76419","83993","NA","101287","NA","NA","2564","2619","101346","74058","NA","NA","3916","2697","2668","2697","72720","101392","76460","101346","101351","NA","97934","NA","NA","2566","2564","2566","72720","lineup1","no","6","no","1366"
"","white","no","xpyriment","legacy","legacy","0","no","relative","2","2","1","2","2","6","6","1","1","1","6","0","0","0","1","6","1","1","6","1","1","1","6","13","1","1","2","1","1","1","1","0","0","0","6","03/21/18 15:21:32","Executes Python code","yes","","lineup_videoFB_W.osexp","C:/Users/standalone/Desktop/FB 21 Mar 1.24","no","mono","no","24","no","black","no","yes","female","768","Not sure","no","no","no","legacy","0","0","C:/Users/standalone/Desktop/FB 21 Mar 1.24/subject-103.csv","[member1]","2","3","4","5","1","7","xpyriment","Jazzy James","3.1.6","0","2","legacy","1024","2","48000","-16","experiment","103","odd","legacy","[target2]","present","absent","101351","2623","83993","101351","2624","NA","127305","83993","NA","101287","NA","NA","2564","2619","101346","122511","NA","NA","102568","101459","101430","101459","102568","127305","76460","101346","101351","NA","97934","NA","NA","2566","2564","2566","104320","lineup1","no","1","no","1366"
"","white","no","xpyriment","legacy","legacy","0","no","relative","2","2","1","2","2","7","7","1","1","1","7","0","0","0","1","7","1","1","7","1","1","1","7","14","1","1","2","1","1","1","1","0","0","0","7","03/21/18 15:21:32","Executes Python code","yes","","lineup_videoFB_W.osexp","C:/Users/standalone/Desktop/FB 21 Mar 1.24","no","mono","no","24","no","black","no","yes","female","768","Not sure","no","no","no","legacy","1","0","C:/Users/standalone/Desktop/FB 21 Mar 1.24/subject-103.csv","[member2]","2","3","4","5","1","7","xpyriment","Jazzy James","3.1.6","0","2","legacy","1024","2","48000","-16","experiment","103","odd","legacy","[target2]","present","absent","101351","2623","83993","101351","2624","NA","143572","83993","NA","101287","NA","NA","2564","2619","101346","140540","NA","NA","102568","101459","101430","101459","128482","143572","76460","101346","101351","NA","97934","NA","NA","2566","2564","2566","128483","lineup1","no","2","no","1366"
"","white","no","xpyriment","legacy","legacy","0","no","relative","2","2","1","2","2","8","8","1","1","1","8","0","0","0","1","8","1","1","8","1","1","1","8","15","1","1","2","1","1","1","1","0","0","0","8","03/21/18 15:21:32","Executes Python code","yes","","lineup_videoFB_W.osexp","C:/Users/standalone/Desktop/FB 21 Mar 1.24","no","mono","no","24","no","black","no","yes","female","768","No","no","no","no","legacy","2","0","C:/Users/standalone/Desktop/FB 21 Mar 1.24/subject-103.csv","[member3]","2","3","4","5","1","7","xpyriment","Jazzy James","3.1.6","0","2","legacy","1024","2","48000","-16","experiment","103","odd","legacy","[target2]","present","absent","101351","2623","83993","101351","2624","NA","149020","83993","NA","101287","NA","NA","2564","2619","101346","146834","NA","NA","102568","101459","101430","101459","144746","149020","76460","101346","101351","NA","97934","NA","NA","2566","2564","2566","144746","lineup1","no","3","no","1366"
"","white","no","xpyriment","legacy","legacy","0","no","relative","2","2","1","2","2","9","9","1","1","1","9","0","0","0","1","9","1","1","9","1","1","1","9","16","1","1","2","1","1","1","1","0","0","0","9","03/21/18 15:21:32","Executes Python code","yes","","lineup_videoFB_W.osexp","C:/Users/standalone/Desktop/FB 21 Mar 1.24","no","mono","no","24","no","black","no","yes","female","768","No","no","no","no","legacy","3","0","C:/Users/standalone/Desktop/FB 21 Mar 1.24/subject-103.csv","[member4]","2","3","4","5","1","7","xpyriment","Jazzy James","3.1.6","0","2","legacy","1024","2","48000","-16","experiment","103","odd","legacy","[target2]","present","absent","101351","2623","83993","101351","2624","NA","165609","83993","NA","101287","NA","NA","2564","2619","101346","163356","NA","NA","102568","101459","101430","101459","150130","165609","76460","101346","101351","NA","97934","NA","NA","2566","2564","2566","150130","lineup1","no","4","no","1366"
"","white","no","xpyriment","legacy","legacy","0","no","relative","2","2","1","2","2","10","10","1","1","1","10","0","0","0","1","10","1","1","10","1","1","1","10","17","1","1","2","1","1","1","1","0","0","0","10","03/21/18 15:21:32","Executes Python code","yes","","lineup_videoFB_W.osexp","C:/Users/standalone/Desktop/FB 21 Mar 1.24","no","mono","no","24","no","black","no","yes","female","768","No","no","no","no","legacy","4","0","C:/Users/standalone/Desktop/FB 21 Mar 1.24/subject-103.csv","[member5]","2","3","4","5","1","7","xpyriment","Jazzy James","3.1.6","0","2","legacy","1024","2","48000","-16","experiment","103","odd","legacy","[target2]","present","absent","101351","2623","83993","101351","2624","NA","180939","83993","NA","101287","NA","NA","2564","2619","101346","178483","NA","NA","102568","101459","101430","101459","166755","180939","76460","101346","101351","NA","97934","NA","NA","2566","2564","2566","166755","lineup1","no","5","no","1366"
"","white","no","xpyriment","legacy","legacy","0","no","relative","2","2","1","2","2","11","11","1","1","1","11","0","0","0","1","11","1","1","11","1","1","1","11","18","1","1","2","1","1","1","1","0","0","0","11","03/21/18 15:21:32","Executes Python code","yes","","lineup_videoFB_W.osexp","C:/Users/standalone/Desktop/FB 21 Mar 1.24","no","mono","no","24","no","black","no","yes","female","768","No","no","no","no","legacy","5","0","C:/Users/standalone/Desktop/FB 21 Mar 1.24/subject-103.csv","[member6]","2","3","4","5","1","7","xpyriment","Jazzy James","3.1.6","0","2","legacy","1024","2","48000","-16","experiment","103","odd","legacy","[target2]","present","absent","101351","2623","83993","101351","2624","NA","194166","83993","NA","101287","NA","NA","2564","2619","101346","192122","NA","NA","102568","101459","101430","101459","182068","194166","76460","101346","101351","NA","97934","NA","NA","2566","2564","2566","182069","lineup1","no","6","no","1366"
"","white","no","xpyriment","legacy","legacy","0","no","relative","2","2","1","2","2","11","11","1","1","1","11","0","0","0","1","11","1","1","11","1","1","1","11","18","1","1","2","1","1","1","1","0","0","0","11","03/21/18 15:21:32","Executes Python code","yes","","lineup_videoFB_W.osexp","C:/Users/standalone/Desktop/FB 21 Mar 1.24","no","mono","no","24","no","black","no","yes","female","768","No","No","no","No","legacy","5","0","C:/Users/standalone/Desktop/FB 21 Mar 1.24/subject-103.csv","[member6]","2","3","4","5","1","7","xpyriment","Jazzy James","3.1.6","0","2","legacy","1024","2","48000","-16","experiment","103","odd","legacy","[target2]","present","absent","101351","2623","209682","101351","2624","NA","194166","209681","NA","218428","NA","NA","2564","2619","101346","192122","NA","NA","102568","101459","101430","101459","182068","218428","194204","101346","101351","NA","215411","NA","NA","2566","2564","2566","182069","lineup1","no","6","no","1366"
"","white","no","xpyriment","legacy","legacy","0","no","relative","2","2","1","2","2","11","11","1","1","1","11","0","0","0","1","11","1","1","11","1","1","1","11","18","1","1","2","1","1","1","1","0","0","0","11","03/21/18 15:21:32","Executes Python code","yes","","lineup_videoFB_W.osexp","C:/Users/standalone/Desktop/FB 21 Mar 1.24","no","mono","no","24","no","black","no","yes","female","768","No","No","no","No","legacy","5","0","C:/Users/standalone/Desktop/FB 21 Mar 1.24/subject-103.csv","[member6]","2","3","4","5","1","7","xpyriment","Jazzy James","3.1.6","0","2","legacy","1024","2","48000","-16","experiment","103","odd","legacy","[target2]","present","absent","101351","2623","209682","101351","2624","NA","194166","209681","NA","218428","NA","218509","2564","2619","101346","192122","NA","NA","102568","101459","101430","101459","182068","221056","194204","101346","101351","NA","215411","NA","NA","2566","2564","2566","182069","lineup1","no","6","no","1366"
