"_prepare","background","bidi","canvas_backend","clock_backend","color_backend","compensation","confidence_immediate","coordinates","count_TA_sequence_setting","count_TP_sequence_setting","count_admin_check","count_check_TA","count_check_TP","count_check_confidence_imm","count_check_identification","count_check_made_identification","count_check_multiple_identification","count_check_proceeding_identification","count_confidence_imm","count_end_of_experiment","count_experiment","count_gender_lineup_loop","count_gender_randomization_sequence","count_identification_task","count_instructions_after_multiple","count_instructions_after_proceed_identification","count_instructions_before_view","count_lineup_loop","count_lineup_procedure_loop","count_lineup_procedure_sequence","count_lineup_sequence","count_logger","count_made_identification","count_member_randomization_loop","count_member_randomization_sequence","count_multiple_identification","count_proceed_identification","count_repeat_lineup_sequence_identification","count_repeat_lineup_sequence_multiple","count_target_setting","count_target_setting_loop","count_target_setting_sequence","count_video","datetime","description","disable_garbage_collection","empty_column","experiment_file","experiment_path","font_bold","font_family","font_italic","font_size","font_underline","foreground","form_clicks","fullscreen","gender","height","identification","identification_made","identification_multiple","identification_proceed","keyboard_backend","live_row","live_row_target_setting_loop","logfile","member","member1","member2","member3","member4","member5","member6","mouse_backend","opensesame_codename","opensesame_version","repeat_cycle","round_decimals","sampler_backend","sound_buf_size","sound_channels","sound_freq","sound_sample_size","start","subject_nr","subject_parity","synth_backend","target","target1","target2","time_TA_sequence_setting","time_TP_sequence_setting","time_admin_check","time_check_TA","time_check_TP","time_check_confidence_imm","time_check_identification","time_check_made_identification","time_check_multiple_identification","time_check_proceeding_identification","time_confidence_imm","time_end_of_experiment","time_experiment","time_gender_lineup_loop","time_gender_randomization_sequence","time_identification_task","time_instructions_after_multiple","time_instructions_after_proceed_identification","time_instructions_before_view","time_lineup_loop","time_lineup_procedure_loop","time_lineup_procedure_sequence","time_lineup_sequence","time_logger","time_made_identification","time_member_randomization_loop","time_member_randomization_sequence","time_multiple_identification","time_proceed_identification","time_repeat_lineup_sequence_identification","time_repeat_lineup_sequence_multiple","time_target_setting","time_target_setting_loop","time_target_setting_sequence","time_video","title","transparent_variables","trial","uniform_coordinates","width"
"","white","no","xpyriment","legacy","legacy","0","NA","relative","NA","NA","NA","NA","NA","NA","NA","NA","NA","NA","NA","0","0","0","NA","NA","NA","NA","NA","NA","NA","NA","NA","1","NA","NA","NA","NA","NA","NA","NA","0","0","0","NA","03/21/18 15:34:44","Executes Python code","yes","","lineup_videoFB_W.osexp","C:/Users/standalone/Desktop/FB 21 Mar 1.24","no","mono","no","24","no","black","no","yes","NA","768","NA","NA","NA","NA","legacy","0","0","C:/Users/standalone/Desktop/FB 21 Mar 1.24/subject-108.csv","NA","NA","NA","NA","NA","NA","NA","xpyriment","Jazzy James","3.1.6","0","2","legacy","1024","2","48000","-16","experiment","108","even","legacy","NA","present","absent","NA","NA","NA","NA","NA","NA","NA","NA","NA","NA","NA","NA","2678","NA","NA","NA","NA","NA","NA","NA","NA","NA","NA","2680","NA","NA","NA","NA","NA","NA","NA","2680","2678","2680","NA","lineup1","no","NA","no","1366"
"","white","no","xpyriment","legacy","legacy","0","NA","relative","1","1","NA","1","1","NA","NA","NA","NA","NA","NA","0","0","0","0","NA","NA","NA","NA","NA","0","NA","NA","3","NA","0","1","NA","NA","NA","NA","0","0","0","NA","03/21/18 15:34:44","Executes Python code","yes","","lineup_videoFB_W.osexp","C:/Users/standalone/Desktop/FB 21 Mar 1.24","no","mono","no","24","no","black","no","yes","female","768","NA","NA","NA","NA","legacy","0","0","C:/Users/standalone/Desktop/FB 21 Mar 1.24/subject-108.csv","NA","1","7","2","5","4","3","xpyriment","Jazzy James","3.1.6","0","2","legacy","1024","2","48000","-16","experiment","108","even","legacy","[target2]","present","absent","2747","NA","NA","2747","NA","NA","NA","NA","NA","NA","NA","NA","2678","2739","2742","NA","NA","NA","NA","NA","NA","NA","NA","2747","NA","2742","2746","NA","NA","NA","NA","2680","2678","2680","NA","lineup1","no","NA","no","1366"
"","white","no","xpyriment","legacy","legacy","0","NA","relative","1","1","NA","1","1","NA","NA","NA","NA","NA","NA","0","0","0","0","NA","NA","NA","NA","NA","0","NA","NA","3","NA","0","1","NA","NA","NA","NA","0","0","0","NA","03/21/18 15:34:44","Executes Python code","yes","","lineup_videoFB_W.osexp","C:/Users/standalone/Desktop/FB 21 Mar 1.24","no","mono","no","24","no","black","no","yes","female","768","NA","NA","NA","NA","legacy","0","0","C:/Users/standalone/Desktop/FB 21 Mar 1.24/subject-108.csv","NA","1","7","2","5","4","3","xpyriment","Jazzy James","3.1.6","0","2","legacy","1024","2","48000","-16","experiment","108","even","legacy","[target2]","present","absent","2747","NA","NA","2747","NA","NA","NA","NA","NA","NA","NA","NA","2678","2739","2742","NA","NA","NA","NA","NA","NA","NA","NA","2795","NA","2742","2746","NA","NA","NA","NA","2680","2678","2680","NA","lineup1","no","NA","no","1366"
"","white","no","xpyriment","legacy","legacy","0","no","relative","1","1","0","1","1","0","0","0","0","0","0","0","0","0","0","0","0","0","0","0","0","0","0","5","0","0","1","0","0","0","0","0","0","0","0","03/21/18 15:34:44","Executes Python code","yes","","lineup_videoFB_W.osexp","C:/Users/standalone/Desktop/FB 21 Mar 1.24","no","mono","no","24","no","black","no","yes","female","768","No","no","no","no","legacy","0","0","C:/Users/standalone/Desktop/FB 21 Mar 1.24/subject-108.csv","[member1]","1","7","2","5","4","3","xpyriment","Jazzy James","3.1.6","0","2","legacy","1024","2","48000","-16","experiment","108","even","legacy","[target2]","present","absent","2747","NA","NA","2747","NA","NA","21329","NA","NA","NA","NA","NA","2678","2739","2742","16764","NA","NA","4194","2868","2839","2868","4194","21329","NA","2742","2746","NA","NA","NA","NA","2680","2678","2680","8248","lineup1","no","1","no","1366"
"","white","no","xpyriment","legacy","legacy","0","no","relative","1","1","0","1","1","1","1","0","0","0","1","0","0","0","0","1","0","0","1","0","0","0","1","6","0","0","1","0","0","0","0","0","0","0","1","03/21/18 15:34:44","Executes Python code","yes","","lineup_videoFB_W.osexp","C:/Users/standalone/Desktop/FB 21 Mar 1.24","no","mono","no","24","no","black","no","yes","female","768","No","no","no","no","legacy","1","0","C:/Users/standalone/Desktop/FB 21 Mar 1.24/subject-108.csv","[member2]","1","7","2","5","4","3","xpyriment","Jazzy James","3.1.6","0","2","legacy","1024","2","48000","-16","experiment","108","even","legacy","[target2]","present","absent","2747","NA","NA","2747","NA","NA","28476","NA","NA","NA","NA","NA","2678","2739","2742","25683","NA","NA","4194","2868","2839","2868","22474","28476","NA","2742","2746","NA","NA","NA","NA","2680","2678","2680","22474","lineup1","no","2","no","1366"
"","white","no","xpyriment","legacy","legacy","0","no","relative","1","1","0","1","1","2","2","0","0","0","2","0","0","0","0","2","0","0","2","0","0","0","2","7","0","0","1","0","0","0","0","0","0","0","2","03/21/18 15:34:44","Executes Python code","yes","","lineup_videoFB_W.osexp","C:/Users/standalone/Desktop/FB 21 Mar 1.24","no","mono","no","24","no","black","no","yes","female","768","No","no","no","no","legacy","2","0","C:/Users/standalone/Desktop/FB 21 Mar 1.24/subject-108.csv","[member3]","1","7","2","5","4","3","xpyriment","Jazzy James","3.1.6","0","2","legacy","1024","2","48000","-16","experiment","108","even","legacy","[target2]","present","absent","2747","NA","NA","2747","NA","NA","34271","NA","NA","NA","NA","NA","2678","2739","2742","31917","NA","NA","4194","2868","2839","2868","29631","34272","NA","2742","2746","NA","NA","NA","NA","2680","2678","2680","29631","lineup1","no","3","no","1366"
"","white","no","xpyriment","legacy","legacy","0","no","relative","1","1","0","1","1","3","3","0","0","0","3","0","0","0","0","3","0","0","3","0","0","0","3","8","0","0","1","0","0","0","0","0","0","0","3","03/21/18 15:34:44","Executes Python code","yes","","lineup_videoFB_W.osexp","C:/Users/standalone/Desktop/FB 21 Mar 1.24","no","mono","no","24","no","black","no","yes","female","768","No","no","no","no","legacy","3","0","C:/Users/standalone/Desktop/FB 21 Mar 1.24/subject-108.csv","[member4]","1","7","2","5","4","3","xpyriment","Jazzy James","3.1.6","0","2","legacy","1024","2","48000","-16","experiment","108","even","legacy","[target2]","present","absent","2747","NA","NA","2747","NA","NA","40544","NA","NA","NA","NA","NA","2678","2739","2742","37988","NA","NA","4194","2868","2839","2868","35392","40544","NA","2742","2746","NA","NA","NA","NA","2680","2678","2680","35392","lineup1","no","4","no","1366"
"","white","no","xpyriment","legacy","legacy","0","no","relative","1","1","0","1","1","4","4","0","0","0","4","0","0","0","0","4","0","0","4","0","0","0","4","9","0","0","1","0","0","0","0","0","0","0","4","03/21/18 15:34:44","Executes Python code","yes","","lineup_videoFB_W.osexp","C:/Users/standalone/Desktop/FB 21 Mar 1.24","no","mono","no","24","no","black","no","yes","female","768","No","no","no","no","legacy","4","0","C:/Users/standalone/Desktop/FB 21 Mar 1.24/subject-108.csv","[member5]","1","7","2","5","4","3","xpyriment","Jazzy James","3.1.6","0","2","legacy","1024","2","48000","-16","experiment","108","even","legacy","[target2]","present","absent","2747","NA","NA","2747","NA","NA","48168","NA","NA","NA","NA","NA","2678","2739","2742","45395","NA","NA","4194","2868","2839","2868","41726","48168","NA","2742","2746","NA","NA","NA","NA","2680","2678","2680","41726","lineup1","no","5","no","1366"
"","white","no","xpyriment","legacy","legacy","0","no","relative","1","1","0","1","1","5","5","0","0","0","5","0","0","0","0","5","0","0","5","0","0","0","5","10","0","0","1","0","0","0","0","0","0","0","5","03/21/18 15:34:44","Executes Python code","yes","","lineup_videoFB_W.osexp","C:/Users/standalone/Desktop/FB 21 Mar 1.24","no","mono","no","24","no","black","no","yes","female","768","No","no","no","no","legacy","5","0","C:/Users/standalone/Desktop/FB 21 Mar 1.24/subject-108.csv","[member6]","1","7","2","5","4","3","xpyriment","Jazzy James","3.1.6","0","2","legacy","1024","2","48000","-16","experiment","108","even","legacy","[target2]","present","absent","2747","NA","NA","2747","NA","NA","53981","NA","NA","NA","NA","NA","2678","2739","2742","51619","NA","NA","4194","2868","2839","2868","49337","53981","NA","2742","2746","NA","NA","NA","NA","2680","2678","2680","49337","lineup1","no","6","no","1366"
"","white","no","xpyriment","legacy","legacy","0","no","relative","1","1","0","1","1","5","5","0","0","0","5","0","0","0","0","5","0","0","5","0","0","0","5","10","0","0","1","0","0","0","0","0","0","0","5","03/21/18 15:34:44","Executes Python code","yes","","lineup_videoFB_W.osexp","C:/Users/standalone/Desktop/FB 21 Mar 1.24","no","mono","no","24","no","black","no","yes","female","768","No","No","no","No","legacy","5","0","C:/Users/standalone/Desktop/FB 21 Mar 1.24/subject-108.csv","[member6]","1","7","2","5","4","3","xpyriment","Jazzy James","3.1.6","0","2","legacy","1024","2","48000","-16","experiment","108","even","legacy","[target2]","present","absent","2747","NA","57965","2747","NA","NA","53981","57965","NA","66556","NA","NA","2678","2739","2742","51619","NA","NA","4194","2868","2839","2868","49337","66556","54026","2742","2746","NA","62245","NA","NA","2680","2678","2680","49337","lineup1","no","6","no","1366"
"","white","no","xpyriment","legacy","legacy","0","no","relative","2","2","0","2","2","5","5","0","0","0","5","0","0","0","1","5","0","0","5","0","1","0","5","11","0","1","2","0","0","0","0","0","0","0","5","03/21/18 15:34:44","Executes Python code","yes","","lineup_videoFB_W.osexp","C:/Users/standalone/Desktop/FB 21 Mar 1.24","no","mono","no","24","no","black","no","yes","male","768","No","No","no","No","legacy","0","0","C:/Users/standalone/Desktop/FB 21 Mar 1.24/subject-108.csv","[member6]","4","5","6","1","3","2","xpyriment","Jazzy James","3.1.6","0","2","legacy","1024","2","48000","-16","experiment","108","even","legacy","[target1]","present","absent","2747","66647","57965","2747","66648","NA","53981","57965","NA","66556","NA","NA","2678","2739","66645","51619","NA","NA","4194","2868","2839","2868","49337","66648","54026","66645","66647","NA","62245","NA","NA","2680","2678","2680","49337","lineup1","no","6","no","1366"
"","white","no","xpyriment","legacy","legacy","0","no","relative","2","2","1","2","2","6","6","1","1","1","6","0","0","0","1","6","1","1","6","1","1","1","6","13","1","1","2","1","1","1","1","0","0","0","6","03/21/18 15:34:44","Executes Python code","yes","","lineup_videoFB_W.osexp","C:/Users/standalone/Desktop/FB 21 Mar 1.24","no","mono","no","24","no","black","no","yes","male","768","No","no","no","no","legacy","0","0","C:/Users/standalone/Desktop/FB 21 Mar 1.24/subject-108.csv","[member1]","4","5","6","1","3","2","xpyriment","Jazzy James","3.1.6","0","2","legacy","1024","2","48000","-16","experiment","108","even","legacy","[target1]","present","absent","2747","66647","57965","2747","66648","NA","75061","57965","NA","66556","NA","NA","2678","2739","66645","72113","NA","NA","67737","66714","66688","66714","67737","75061","54026","66645","66647","NA","62245","NA","NA","2680","2678","2680","69637","lineup1","no","1","no","1366"
"","white","no","xpyriment","legacy","legacy","0","no","relative","2","2","1","2","2","7","7","1","1","1","7","0","0","0","1","7","1","1","7","1","1","1","7","14","1","1","2","1","1","1","1","0","0","0","7","03/21/18 15:34:44","Executes Python code","yes","","lineup_videoFB_W.osexp","C:/Users/standalone/Desktop/FB 21 Mar 1.24","no","mono","no","24","no","black","no","yes","male","768","No","no","no","no","legacy","1","0","C:/Users/standalone/Desktop/FB 21 Mar 1.24/subject-108.csv","[member2]","4","5","6","1","3","2","xpyriment","Jazzy James","3.1.6","0","2","legacy","1024","2","48000","-16","experiment","108","even","legacy","[target1]","present","absent","2747","66647","57965","2747","66648","NA","80497","57965","NA","66556","NA","NA","2678","2739","66645","78172","NA","NA","67737","66714","66688","66714","76243","80497","54026","66645","66647","NA","62245","NA","NA","2680","2678","2680","76243","lineup1","no","2","no","1366"
"","white","no","xpyriment","legacy","legacy","0","50","relative","2","2","1","2","2","8","8","1","1","1","8","0","0","0","1","8","1","1","8","1","1","1","8","15","1","1","2","1","1","1","1","0","0","0","8","03/21/18 15:34:44","Executes Python code","yes","","lineup_videoFB_W.osexp","C:/Users/standalone/Desktop/FB 21 Mar 1.24","no","mono","no","24","no","black","no","yes","male","768","Yes","no","no","no","legacy","2","0","C:/Users/standalone/Desktop/FB 21 Mar 1.24/subject-108.csv","[member3]","4","5","6","1","3","2","xpyriment","Jazzy James","3.1.6","0","2","legacy","1024","2","48000","-16","experiment","108","even","legacy","[target1]","present","absent","2747","66647","57965","2747","66648","97677","90617","57965","NA","66556","90617","NA","2678","2739","66645","85877","NA","NA","67737","66714","66688","66714","81572","97678","54026","66645","66647","NA","62245","NA","NA","2680","2678","2680","81572","lineup1","no","3","no","1366"
"","white","no","xpyriment","legacy","legacy","0","no","relative","2","2","1","2","2","9","9","1","1","1","9","0","0","0","1","9","1","1","9","1","1","1","9","16","1","1","2","1","1","1","1","0","0","0","9","03/21/18 15:34:44","Executes Python code","yes","","lineup_videoFB_W.osexp","C:/Users/standalone/Desktop/FB 21 Mar 1.24","no","mono","no","24","no","black","no","yes","male","768","No","no","no","no","legacy","3","0","C:/Users/standalone/Desktop/FB 21 Mar 1.24/subject-108.csv","[member4]","4","5","6","1","3","2","xpyriment","Jazzy James","3.1.6","0","2","legacy","1024","2","48000","-16","experiment","108","even","legacy","[target1]","present","absent","2747","66647","57965","2747","66648","97677","103579","57965","NA","66556","90617","NA","2678","2739","66645","101421","NA","NA","67737","66714","66688","66714","98773","103579","54026","66645","66647","NA","62245","NA","NA","2680","2678","2680","98773","lineup1","no","4","no","1366"
"","white","no","xpyriment","legacy","legacy","0","no","relative","2","2","1","2","2","10","10","1","1","1","10","0","0","0","1","10","1","1","10","1","1","1","10","17","1","1","2","1","1","1","1","0","0","0","10","03/21/18 15:34:44","Executes Python code","yes","","lineup_videoFB_W.osexp","C:/Users/standalone/Desktop/FB 21 Mar 1.24","no","mono","no","24","no","black","no","yes","male","768","No","no","no","no","legacy","4","0","C:/Users/standalone/Desktop/FB 21 Mar 1.24/subject-108.csv","[member5]","4","5","6","1","3","2","xpyriment","Jazzy James","3.1.6","0","2","legacy","1024","2","48000","-16","experiment","108","even","legacy","[target1]","present","absent","2747","66647","57965","2747","66648","97677","107949","57965","NA","66556","90617","NA","2678","2739","66645","105819","NA","NA","67737","66714","66688","66714","104708","107949","54026","66645","66647","NA","62245","NA","NA","2680","2678","2680","104708","lineup1","no","5","no","1366"
"","white","no","xpyriment","legacy","legacy","0","no","relative","2","2","1","2","2","11","11","1","1","1","11","0","0","0","1","11","1","1","11","1","1","1","11","18","1","1","2","1","1","1","1","0","0","0","11","03/21/18 15:34:44","Executes Python code","yes","","lineup_videoFB_W.osexp","C:/Users/standalone/Desktop/FB 21 Mar 1.24","no","mono","no","24","no","black","no","yes","male","768","No","no","no","no","legacy","5","0","C:/Users/standalone/Desktop/FB 21 Mar 1.24/subject-108.csv","[member6]","4","5","6","1","3","2","xpyriment","Jazzy James","3.1.6","0","2","legacy","1024","2","48000","-16","experiment","108","even","legacy","[target1]","present","absent","2747","66647","57965","2747","66648","97677","111736","57965","NA","66556","90617","NA","2678","2739","66645","109990","NA","NA","67737","66714","66688","66714","109028","111736","54026","66645","66647","NA","62245","NA","NA","2680","2678","2680","109028","lineup1","no","6","no","1366"
"","white","no","xpyriment","legacy","legacy","0","no","relative","2","2","1","2","2","11","11","1","1","1","11","0","0","0","1","11","1","1","11","1","1","1","11","18","1","1","2","1","1","1","1","0","0","0","11","03/21/18 15:34:44","Executes Python code","yes","","lineup_videoFB_W.osexp","C:/Users/standalone/Desktop/FB 21 Mar 1.24","no","mono","no","24","no","black","no","yes","male","768","No","Yes","One","No","legacy","5","0","C:/Users/standalone/Desktop/FB 21 Mar 1.24/subject-108.csv","[member6]","4","5","6","1","3","2","xpyriment","Jazzy James","3.1.6","0","2","legacy","1024","2","48000","-16","experiment","108","even","legacy","[target1]","present","absent","2747","66647","117379","2747","66648","97677","111736","114120","117379","126441","90617","NA","2678","2739","66645","109990","NA","NA","67737","66714","66688","66714","109028","126441","111793","66645","66647","114120","122459","NA","NA","2680","2678","2680","109028","lineup1","no","6","no","1366"
"","white","no","xpyriment","legacy","legacy","0","no","relative","2","2","1","2","2","11","11","1","1","1","11","0","0","0","1","11","1","1","11","1","1","1","11","18","1","1","2","1","1","1","1","0","0","0","11","03/21/18 15:34:44","Executes Python code","yes","","lineup_videoFB_W.osexp","C:/Users/standalone/Desktop/FB 21 Mar 1.24","no","mono","no","24","no","black","no","yes","male","768","No","Yes","One","No","legacy","5","0","C:/Users/standalone/Desktop/FB 21 Mar 1.24/subject-108.csv","[member6]","4","5","6","1","3","2","xpyriment","Jazzy James","3.1.6","0","2","legacy","1024","2","48000","-16","experiment","108","even","legacy","[target1]","present","absent","2747","66647","117379","2747","66648","97677","111736","114120","117379","126441","90617","126502","2678","2739","66645","109990","NA","NA","67737","66714","66688","66714","109028","128040","111793","66645","66647","114120","122459","NA","NA","2680","2678","2680","109028","lineup1","no","6","no","1366"
