"_prepare","background","bidi","canvas_backend","clock_backend","color_backend","compensation","confidence_immediate","coordinates","count_TA_sequence_setting","count_TP_sequence_setting","count_admin_check","count_check_TA","count_check_TP","count_check_confidence_imm","count_check_identification","count_check_made_identification","count_check_multiple_identification","count_check_proceeding_identification","count_check_time_of_exposure","count_confidence_imm","count_end_of_experiment","count_experiment","count_gender_lineup_loop","count_gender_randomization_sequence","count_identification_task","count_instructions_after_multiple","count_instructions_after_proceed_identification","count_instructions_before_view","count_lineup_loop","count_lineup_procedure_loop","count_lineup_procedure_sequence","count_lineup_sequence","count_logger","count_made_identification","count_member_randomization_loop","count_member_randomization_sequence","count_multiple_identification","count_proceed_identification","count_repeat_lineup_sequence_identification","count_repeat_lineup_sequence_multiple","count_target_setting","count_target_setting_loop","count_target_setting_sequence","count_time_of_exposure","count_video","datetime","description","disable_garbage_collection","empty_column","experiment_file","experiment_path","font_bold","font_family","font_italic","font_size","font_underline","foreground","form_clicks","fullscreen","gender","height","identification","identification_made","identification_multiple","identification_proceed","keyboard_backend","lecture_time","live_row","live_row_target_setting_loop","logfile","member","member1","member2","member3","member4","member5","member6","mouse_backend","opensesame_codename","opensesame_version","repeat_cycle","round_decimals","sampler_backend","sound_buf_size","sound_channels","sound_freq","sound_sample_size","start","subject_nr","subject_parity","synth_backend","target","target1","target2","time_TA_sequence_setting","time_TP_sequence_setting","time_admin_check","time_check_TA","time_check_TP","time_check_confidence_imm","time_check_identification","time_check_made_identification","time_check_multiple_identification","time_check_proceeding_identification","time_check_time_of_exposure","time_confidence_imm","time_end_of_experiment","time_experiment","time_gender_lineup_loop","time_gender_randomization_sequence","time_identification_task","time_instructions_after_multiple","time_instructions_after_proceed_identification","time_instructions_before_view","time_lineup_loop","time_lineup_procedure_loop","time_lineup_procedure_sequence","time_lineup_sequence","time_logger","time_made_identification","time_member_randomization_loop","time_member_randomization_sequence","time_multiple_identification","time_proceed_identification","time_repeat_lineup_sequence_identification","time_repeat_lineup_sequence_multiple","time_target_setting","time_target_setting_loop","time_target_setting_sequence","time_time_of_exposure","time_video","title","transparent_variables","trial","uniform_coordinates","width"
"","white","no","xpyriment","legacy","legacy","0","NA","relative","NA","NA","NA","NA","NA","NA","NA","NA","NA","NA","0","NA","0","0","0","NA","NA","NA","NA","NA","NA","NA","NA","NA","1","NA","NA","NA","NA","NA","NA","NA","0","0","0","0","NA","11/10/18 12:49:37","Executes Python code","yes","","lineup_videoVIPER.osexp","C:/Users/standalone/Desktop/Sat 10 Nov HS 1.25","no","mono","no","24","no","black","no","yes","NA","768","NA","NA","NA","NA","legacy","no","0","0","C:/Users/standalone/Desktop/Sat 10 Nov HS 1.25/subject-157.csv","NA","NA","NA","NA","NA","NA","NA","xpyriment","Jazzy James","3.1.6","0","2","legacy","1024","2","48000","-16","experiment","157","odd","legacy","NA","present","absent","NA","NA","NA","NA","NA","NA","NA","NA","NA","NA","NA","NA","NA","3102","NA","NA","NA","NA","NA","NA","NA","NA","NA","NA","3104","NA","NA","NA","NA","NA","NA","NA","3104","3102","3104","NA","NA","lineup1","no","NA","no","1366"
"","white","no","xpyriment","legacy","legacy","0","NA","relative","2","2","NA","2","2","NA","NA","NA","NA","NA","0","NA","0","0","0","0","NA","NA","NA","NA","NA","0","NA","NA","4","NA","0","2","NA","NA","NA","NA","0","0","0","0","NA","11/10/18 12:49:37","Executes Python code","yes","","lineup_videoVIPER.osexp","C:/Users/standalone/Desktop/Sat 10 Nov HS 1.25","no","mono","no","24","no","black","no","yes","female","768","NA","NA","NA","NA","legacy","no","0","0","C:/Users/standalone/Desktop/Sat 10 Nov HS 1.25/subject-157.csv","NA","3","2","7","4","5","1","xpyriment","Jazzy James","3.1.6","0","2","legacy","1024","2","48000","-16","experiment","157","odd","legacy","[target2]","present","absent","3168","NA","NA","3169","NA","NA","NA","NA","NA","NA","NA","NA","NA","3102","3160","3163","NA","NA","NA","NA","NA","NA","NA","NA","3169","NA","3163","3168","NA","NA","NA","NA","3104","3102","3104","NA","NA","lineup1","no","NA","no","1366"
"","white","no","xpyriment","legacy","legacy","0","NA","relative","2","2","NA","2","2","NA","NA","NA","NA","NA","0","NA","0","0","0","0","NA","NA","NA","NA","NA","0","NA","NA","4","NA","0","2","NA","NA","NA","NA","0","0","0","0","NA","11/10/18 12:49:37","Executes Python code","yes","","lineup_videoVIPER.osexp","C:/Users/standalone/Desktop/Sat 10 Nov HS 1.25","no","mono","no","24","no","black","no","yes","female","768","NA","NA","NA","NA","legacy","no","0","0","C:/Users/standalone/Desktop/Sat 10 Nov HS 1.25/subject-157.csv","NA","3","2","7","4","5","1","xpyriment","Jazzy James","3.1.6","0","2","legacy","1024","2","48000","-16","experiment","157","odd","legacy","[target2]","present","absent","3168","NA","NA","3169","NA","NA","NA","NA","NA","NA","NA","NA","NA","3102","3160","3163","NA","NA","NA","NA","NA","NA","NA","NA","3210","NA","3163","3168","NA","NA","NA","NA","3104","3102","3104","NA","NA","lineup1","no","NA","no","1366"
"","white","no","xpyriment","legacy","legacy","0","NA","relative","2","2","NA","2","2","NA","NA","NA","NA","NA","0","NA","0","0","0","0","NA","NA","NA","NA","NA","0","NA","NA","4","NA","0","2","NA","NA","NA","NA","0","0","0","0","NA","11/10/18 12:49:37","Executes Python code","yes","","lineup_videoVIPER.osexp","C:/Users/standalone/Desktop/Sat 10 Nov HS 1.25","no","mono","no","24","no","black","no","yes","female","768","NA","NA","NA","NA","legacy","no","0","0","C:/Users/standalone/Desktop/Sat 10 Nov HS 1.25/subject-157.csv","NA","3","2","7","4","5","1","xpyriment","Jazzy James","3.1.6","0","2","legacy","1024","2","48000","-16","experiment","157","odd","legacy","[target2]","present","absent","3168","NA","NA","3169","NA","NA","NA","NA","NA","NA","NA","NA","NA","3102","3160","3163","NA","NA","NA","NA","NA","NA","NA","NA","3244","NA","3163","3168","NA","NA","NA","NA","3104","3102","3104","NA","NA","lineup1","no","NA","no","1366"
"","white","no","xpyriment","legacy","legacy","0","no","relative","2","2","0","2","2","0","0","0","0","0","0","0","0","0","0","0","0","0","0","0","0","0","0","0","6","0","0","2","0","0","0","0","0","0","0","0","0","11/10/18 12:49:37","Executes Python code","yes","","lineup_videoVIPER.osexp","C:/Users/standalone/Desktop/Sat 10 Nov HS 1.25","no","mono","no","24","no","black","no","yes","female","768","No","no","no","no","legacy","no","0","0","C:/Users/standalone/Desktop/Sat 10 Nov HS 1.25/subject-157.csv","[member1]","3","2","7","4","5","1","xpyriment","Jazzy James","3.1.6","0","2","legacy","1024","2","48000","-16","experiment","157","odd","legacy","[target2]","present","absent","3168","NA","NA","3169","NA","NA","30703","NA","NA","NA","NA","NA","NA","3102","3160","3163","26781","NA","NA","3668","3305","3274","3305","3668","30703","NA","3163","3168","NA","NA","NA","NA","3104","3102","3104","NA","10269","lineup1","no","1","no","1366"
"","white","no","xpyriment","legacy","legacy","0","no","relative","2","2","0","2","2","1","1","0","0","0","0","1","0","0","0","0","1","0","0","1","0","0","0","1","7","0","0","2","0","0","0","0","0","0","0","0","1","11/10/18 12:49:37","Executes Python code","yes","","lineup_videoVIPER.osexp","C:/Users/standalone/Desktop/Sat 10 Nov HS 1.25","no","mono","no","24","no","black","no","yes","female","768","No","no","no","no","legacy","no","1","0","C:/Users/standalone/Desktop/Sat 10 Nov HS 1.25/subject-157.csv","[member2]","3","2","7","4","5","1","xpyriment","Jazzy James","3.1.6","0","2","legacy","1024","2","48000","-16","experiment","157","odd","legacy","[target2]","present","absent","3168","NA","NA","3169","NA","NA","46469","NA","NA","NA","NA","NA","NA","3102","3160","3163","43659","NA","NA","3668","3305","3274","3305","30963","46469","NA","3163","3168","NA","NA","NA","NA","3104","3102","3104","NA","30963","lineup1","no","2","no","1366"
"","white","no","xpyriment","legacy","legacy","0","no","relative","2","2","0","2","2","2","2","0","0","0","0","2","0","0","0","0","2","0","0","2","0","0","0","2","8","0","0","2","0","0","0","0","0","0","0","0","2","11/10/18 12:49:37","Executes Python code","yes","","lineup_videoVIPER.osexp","C:/Users/standalone/Desktop/Sat 10 Nov HS 1.25","no","mono","no","24","no","black","no","yes","female","768","No","no","no","no","legacy","no","2","0","C:/Users/standalone/Desktop/Sat 10 Nov HS 1.25/subject-157.csv","[member3]","3","2","7","4","5","1","xpyriment","Jazzy James","3.1.6","0","2","legacy","1024","2","48000","-16","experiment","157","odd","legacy","[target2]","present","absent","3168","NA","NA","3169","NA","NA","62444","NA","NA","NA","NA","NA","NA","3102","3160","3163","60234","NA","NA","3668","3305","3274","3305","46730","62445","NA","3163","3168","NA","NA","NA","NA","3104","3102","3104","NA","46730","lineup1","no","3","no","1366"
"","white","no","xpyriment","legacy","legacy","0","no","relative","2","2","0","2","2","3","3","0","0","0","0","3","0","0","0","0","3","0","0","3","0","0","0","3","9","0","0","2","0","0","0","0","0","0","0","0","3","11/10/18 12:49:37","Executes Python code","yes","","lineup_videoVIPER.osexp","C:/Users/standalone/Desktop/Sat 10 Nov HS 1.25","no","mono","no","24","no","black","no","yes","female","768","No","no","no","no","legacy","no","3","0","C:/Users/standalone/Desktop/Sat 10 Nov HS 1.25/subject-157.csv","[member4]","3","2","7","4","5","1","xpyriment","Jazzy James","3.1.6","0","2","legacy","1024","2","48000","-16","experiment","157","odd","legacy","[target2]","present","absent","3168","NA","NA","3169","NA","NA","70496","NA","NA","NA","NA","NA","NA","3102","3160","3163","68289","NA","NA","3668","3305","3274","3305","62700","70496","NA","3163","3168","NA","NA","NA","NA","3104","3102","3104","NA","62700","lineup1","no","4","no","1366"
"","white","no","xpyriment","legacy","legacy","0","no","relative","2","2","0","2","2","4","4","0","0","0","0","4","0","0","0","0","4","0","0","4","0","0","0","4","10","0","0","2","0","0","0","0","0","0","0","0","4","11/10/18 12:49:37","Executes Python code","yes","","lineup_videoVIPER.osexp","C:/Users/standalone/Desktop/Sat 10 Nov HS 1.25","no","mono","no","24","no","black","no","yes","female","768","Not sure","no","no","no","legacy","no","4","0","C:/Users/standalone/Desktop/Sat 10 Nov HS 1.25/subject-157.csv","[member5]","3","2","7","4","5","1","xpyriment","Jazzy James","3.1.6","0","2","legacy","1024","2","48000","-16","experiment","157","odd","legacy","[target2]","present","absent","3168","NA","NA","3169","NA","NA","82772","NA","NA","NA","NA","NA","NA","3102","3160","3163","80380","NA","NA","3668","3305","3274","3305","70760","82772","NA","3163","3168","NA","NA","NA","NA","3104","3102","3104","NA","70760","lineup1","no","5","no","1366"
"","white","no","xpyriment","legacy","legacy","0","no","relative","2","2","0","2","2","5","5","0","0","0","0","5","0","0","0","0","5","0","0","5","0","0","0","5","11","0","0","2","0","0","0","0","0","0","0","0","5","11/10/18 12:49:37","Executes Python code","yes","","lineup_videoVIPER.osexp","C:/Users/standalone/Desktop/Sat 10 Nov HS 1.25","no","mono","no","24","no","black","no","yes","female","768","Not sure","no","no","no","legacy","no","5","0","C:/Users/standalone/Desktop/Sat 10 Nov HS 1.25/subject-157.csv","[member6]","3","2","7","4","5","1","xpyriment","Jazzy James","3.1.6","0","2","legacy","1024","2","48000","-16","experiment","157","odd","legacy","[target2]","present","absent","3168","NA","NA","3169","NA","NA","99731","NA","NA","NA","NA","NA","NA","3102","3160","3163","95969","NA","NA","3668","3305","3274","3305","83057","99731","NA","3163","3168","NA","NA","NA","NA","3104","3102","3104","NA","83058","lineup1","no","6","no","1366"
"","white","no","xpyriment","legacy","legacy","0","no","relative","2","2","0","2","2","5","5","0","0","0","0","5","0","0","0","0","5","0","0","5","0","0","0","5","11","0","0","2","0","0","0","0","0","0","0","0","5","11/10/18 12:49:37","Executes Python code","yes","","lineup_videoVIPER.osexp","C:/Users/standalone/Desktop/Sat 10 Nov HS 1.25","no","mono","no","24","no","black","no","yes","female","768","Not sure","No","no","No","legacy","no","5","0","C:/Users/standalone/Desktop/Sat 10 Nov HS 1.25/subject-157.csv","[member6]","3","2","7","4","5","1","xpyriment","Jazzy James","3.1.6","0","2","legacy","1024","2","48000","-16","experiment","157","odd","legacy","[target2]","present","absent","3168","NA","106912","3169","NA","NA","99731","106912","NA","119748","NA","NA","NA","3102","3160","3163","95969","NA","NA","3668","3305","3274","3305","83057","119748","99779","3163","3168","NA","112172","NA","NA","3104","3102","3104","NA","83058","lineup1","no","6","no","1366"
"","white","no","xpyriment","legacy","legacy","0","no","relative","3","3","0","3","3","5","5","0","0","0","0","5","0","0","0","1","5","0","0","5","0","1","0","5","12","0","1","3","0","0","0","0","0","0","0","0","5","11/10/18 12:49:37","Executes Python code","yes","","lineup_videoVIPER.osexp","C:/Users/standalone/Desktop/Sat 10 Nov HS 1.25","no","mono","no","24","no","black","no","yes","male","768","Not sure","No","no","No","legacy","no","0","0","C:/Users/standalone/Desktop/Sat 10 Nov HS 1.25/subject-157.csv","[member6]","2","3","5","4","6","1","xpyriment","Jazzy James","3.1.6","0","2","legacy","1024","2","48000","-16","experiment","157","odd","legacy","[target1]","present","absent","3168","119819","106912","3169","119819","NA","99731","106912","NA","119748","NA","NA","NA","3102","3160","119817","95969","NA","NA","3668","3305","3274","3305","83057","119820","99779","119817","119819","NA","112172","NA","NA","3104","3102","3104","NA","83058","lineup1","no","6","no","1366"
"","white","no","xpyriment","legacy","legacy","0","no","relative","3","3","1","3","3","6","6","1","1","1","0","6","0","0","0","1","6","1","1","6","1","1","1","6","14","1","1","3","1","1","1","1","0","0","0","0","6","11/10/18 12:49:37","Executes Python code","yes","","lineup_videoVIPER.osexp","C:/Users/standalone/Desktop/Sat 10 Nov HS 1.25","no","mono","no","24","no","black","no","yes","male","768","No","no","no","no","legacy","no","0","0","C:/Users/standalone/Desktop/Sat 10 Nov HS 1.25/subject-157.csv","[member1]","2","3","5","4","6","1","xpyriment","Jazzy James","3.1.6","0","2","legacy","1024","2","48000","-16","experiment","157","odd","legacy","[target1]","present","absent","3168","119819","106912","3169","119819","NA","133339","106912","NA","119748","NA","NA","NA","3102","3160","119817","130933","NA","NA","120103","119876","119846","119876","120103","133339","99779","119817","119819","NA","112172","NA","NA","3104","3102","3104","NA","122345","lineup1","no","1","no","1366"
"","white","no","xpyriment","legacy","legacy","0","no","relative","3","3","1","3","3","7","7","1","1","1","0","7","0","0","0","1","7","1","1","7","1","1","1","7","15","1","1","3","1","1","1","1","0","0","0","0","7","11/10/18 12:49:37","Executes Python code","yes","","lineup_videoVIPER.osexp","C:/Users/standalone/Desktop/Sat 10 Nov HS 1.25","no","mono","no","24","no","black","no","yes","male","768","No","no","no","no","legacy","no","1","0","C:/Users/standalone/Desktop/Sat 10 Nov HS 1.25/subject-157.csv","[member2]","2","3","5","4","6","1","xpyriment","Jazzy James","3.1.6","0","2","legacy","1024","2","48000","-16","experiment","157","odd","legacy","[target1]","present","absent","3168","119819","106912","3169","119819","NA","145022","106912","NA","119748","NA","NA","NA","3102","3160","119817","142413","NA","NA","120103","119876","119846","119876","133633","145022","99779","119817","119819","NA","112172","NA","NA","3104","3102","3104","NA","133633","lineup1","no","2","no","1366"
"","white","no","xpyriment","legacy","legacy","0","no","relative","3","3","1","3","3","8","8","1","1","1","0","8","0","0","0","1","8","1","1","8","1","1","1","8","16","1","1","3","1","1","1","1","0","0","0","0","8","11/10/18 12:49:37","Executes Python code","yes","","lineup_videoVIPER.osexp","C:/Users/standalone/Desktop/Sat 10 Nov HS 1.25","no","mono","no","24","no","black","no","yes","male","768","No","no","no","no","legacy","no","2","0","C:/Users/standalone/Desktop/Sat 10 Nov HS 1.25/subject-157.csv","[member3]","2","3","5","4","6","1","xpyriment","Jazzy James","3.1.6","0","2","legacy","1024","2","48000","-16","experiment","157","odd","legacy","[target1]","present","absent","3168","119819","106912","3169","119819","NA","149949","106912","NA","119748","NA","NA","NA","3102","3160","119817","147794","NA","NA","120103","119876","119846","119876","145324","149949","99779","119817","119819","NA","112172","NA","NA","3104","3102","3104","NA","145324","lineup1","no","3","no","1366"
"","white","no","xpyriment","legacy","legacy","0","no","relative","3","3","1","3","3","9","9","1","1","1","0","9","0","0","0","1","9","1","1","9","1","1","1","9","17","1","1","3","1","1","1","1","0","0","0","0","9","11/10/18 12:49:37","Executes Python code","yes","","lineup_videoVIPER.osexp","C:/Users/standalone/Desktop/Sat 10 Nov HS 1.25","no","mono","no","24","no","black","no","yes","male","768","No","no","no","no","legacy","no","3","0","C:/Users/standalone/Desktop/Sat 10 Nov HS 1.25/subject-157.csv","[member4]","2","3","5","4","6","1","xpyriment","Jazzy James","3.1.6","0","2","legacy","1024","2","48000","-16","experiment","157","odd","legacy","[target1]","present","absent","3168","119819","106912","3169","119819","NA","164256","106912","NA","119748","NA","NA","NA","3102","3160","119817","160293","NA","NA","120103","119876","119846","119876","150234","164257","99779","119817","119819","NA","112172","NA","NA","3104","3102","3104","NA","150234","lineup1","no","4","no","1366"
"","white","no","xpyriment","legacy","legacy","0","90","relative","3","3","1","3","3","10","10","1","1","1","0","10","0","0","0","1","10","1","1","10","1","1","1","10","18","1","1","3","1","1","1","1","0","0","0","0","10","11/10/18 12:49:37","Executes Python code","yes","","lineup_videoVIPER.osexp","C:/Users/standalone/Desktop/Sat 10 Nov HS 1.25","no","mono","no","24","no","black","no","yes","male","768","Yes","no","no","no","legacy","no","4","0","C:/Users/standalone/Desktop/Sat 10 Nov HS 1.25/subject-157.csv","[member5]","2","3","5","4","6","1","xpyriment","Jazzy James","3.1.6","0","2","legacy","1024","2","48000","-16","experiment","157","odd","legacy","[target1]","present","absent","3168","119819","106912","3169","119819","176382","169376","106912","NA","119748","NA","169377","NA","3102","3160","119817","166652","NA","NA","120103","119876","119846","119876","164517","176382","99779","119817","119819","NA","112172","NA","NA","3104","3102","3104","NA","164518","lineup1","no","5","no","1366"
"","white","no","xpyriment","legacy","legacy","0","no","relative","3","3","1","3","3","11","11","1","1","1","0","11","0","0","0","1","11","1","1","11","1","1","1","11","19","1","1","3","1","1","1","1","0","0","0","0","11","11/10/18 12:49:37","Executes Python code","yes","","lineup_videoVIPER.osexp","C:/Users/standalone/Desktop/Sat 10 Nov HS 1.25","no","mono","no","24","no","black","no","yes","male","768","No","no","no","no","legacy","no","5","0","C:/Users/standalone/Desktop/Sat 10 Nov HS 1.25/subject-157.csv","[member6]","2","3","5","4","6","1","xpyriment","Jazzy James","3.1.6","0","2","legacy","1024","2","48000","-16","experiment","157","odd","legacy","[target1]","present","absent","3168","119819","106912","3169","119819","176382","182693","106912","NA","119748","NA","169377","NA","3102","3160","119817","180156","NA","NA","120103","119876","119846","119876","176642","182693","99779","119817","119819","NA","112172","NA","NA","3104","3102","3104","NA","176642","lineup1","no","6","no","1366"
"","white","no","xpyriment","legacy","legacy","0","no","relative","3","3","1","3","3","11","11","1","1","1","0","11","0","0","0","1","11","1","1","11","1","1","1","11","19","1","1","3","1","1","1","1","0","0","0","0","11","11/10/18 12:49:37","Executes Python code","yes","","lineup_videoVIPER.osexp","C:/Users/standalone/Desktop/Sat 10 Nov HS 1.25","no","mono","no","24","no","black","no","yes","male","768","No","Yes","One","No","legacy","no","5","0","C:/Users/standalone/Desktop/Sat 10 Nov HS 1.25/subject-157.csv","[member6]","2","3","5","4","6","1","xpyriment","Jazzy James","3.1.6","0","2","legacy","1024","2","48000","-16","experiment","157","odd","legacy","[target1]","present","absent","3168","119819","189517","3169","119819","176382","182693","185492","189517","198209","NA","169377","NA","3102","3160","119817","180156","NA","NA","120103","119876","119846","119876","176642","198209","182736","119817","119819","185492","192942","NA","NA","3104","3102","3104","NA","176642","lineup1","no","6","no","1366"
"","white","no","xpyriment","legacy","legacy","0","no","relative","3","3","1","3","3","11","11","1","1","1","0","11","0","0","0","1","11","1","1","11","1","1","1","11","19","1","1","3","1","1","1","1","0","0","0","0","11","11/10/18 12:49:37","Executes Python code","yes","","lineup_videoVIPER.osexp","C:/Users/standalone/Desktop/Sat 10 Nov HS 1.25","no","mono","no","24","no","black","no","yes","male","768","No","Yes","One","No","legacy","12.15pm","5","0","C:/Users/standalone/Desktop/Sat 10 Nov HS 1.25/subject-157.csv","[member6]","2","3","5","4","6","1","xpyriment","Jazzy James","3.1.6","0","2","legacy","1024","2","48000","-16","experiment","157","odd","legacy","[target1]","present","absent","3168","119819","189517","3169","119819","176382","182693","185492","189517","198209","203351","169377","203351","3102","3160","119817","180156","NA","NA","120103","119876","119846","119876","176642","205448","182736","119817","119819","185492","192942","NA","NA","3104","3102","3104","198268","176642","lineup1","no","6","no","1366"
