"_prepare","background","bidi","canvas_backend","clock_backend","color_backend","compensation","confidence_immediate","coordinates","count_TA_sequence_setting","count_TP_sequence_setting","count_admin_check","count_check_TA","count_check_TP","count_check_confidence_imm","count_check_identification","count_check_made_identification","count_check_multiple_identification","count_check_proceeding_identification","count_check_time_of_exposure","count_confidence_imm","count_end_of_experiment","count_experiment","count_gender_lineup_loop","count_gender_randomization_sequence","count_identification_task","count_instructions_after_multiple","count_instructions_after_proceed_identification","count_instructions_before_view","count_lineup_loop","count_lineup_procedure_loop","count_lineup_procedure_sequence","count_lineup_sequence","count_logger","count_made_identification","count_member_randomization_loop","count_member_randomization_sequence","count_multiple_identification","count_proceed_identification","count_repeat_lineup_sequence_identification","count_repeat_lineup_sequence_multiple","count_target_setting","count_target_setting_loop","count_target_setting_sequence","count_time_of_exposure","count_video","datetime","description","disable_garbage_collection","empty_column","experiment_file","experiment_path","font_bold","font_family","font_italic","font_size","font_underline","foreground","form_clicks","fullscreen","gender","height","identification","identification_made","identification_multiple","identification_proceed","keyboard_backend","lecture_time","live_row","live_row_target_setting_loop","logfile","member","member1","member2","member3","member4","member5","member6","mouse_backend","opensesame_codename","opensesame_version","repeat_cycle","round_decimals","sampler_backend","sound_buf_size","sound_channels","sound_freq","sound_sample_size","start","subject_nr","subject_parity","synth_backend","target","target1","target2","time_TA_sequence_setting","time_TP_sequence_setting","time_admin_check","time_check_TA","time_check_TP","time_check_confidence_imm","time_check_identification","time_check_made_identification","time_check_multiple_identification","time_check_proceeding_identification","time_check_time_of_exposure","time_confidence_imm","time_end_of_experiment","time_experiment","time_gender_lineup_loop","time_gender_randomization_sequence","time_identification_task","time_instructions_after_multiple","time_instructions_after_proceed_identification","time_instructions_before_view","time_lineup_loop","time_lineup_procedure_loop","time_lineup_procedure_sequence","time_lineup_sequence","time_logger","time_made_identification","time_member_randomization_loop","time_member_randomization_sequence","time_multiple_identification","time_proceed_identification","time_repeat_lineup_sequence_identification","time_repeat_lineup_sequence_multiple","time_target_setting","time_target_setting_loop","time_target_setting_sequence","time_time_of_exposure","time_video","title","transparent_variables","trial","uniform_coordinates","width"
"","white","no","xpyriment","legacy","legacy","0","NA","relative","NA","NA","NA","NA","NA","NA","NA","NA","NA","NA","0","NA","0","0","0","NA","NA","NA","NA","NA","NA","NA","NA","NA","1","NA","NA","NA","NA","NA","NA","NA","0","0","0","0","NA","11/10/18 12:35:57","Executes Python code","yes","","lineup_videoVIPER.osexp","C:/Users/standalone/Desktop/Sat 10 Nov HS 1.25","no","mono","no","24","no","black","no","yes","NA","768","NA","NA","NA","NA","legacy","no","0","0","C:/Users/standalone/Desktop/Sat 10 Nov HS 1.25/subject-152.csv","NA","NA","NA","NA","NA","NA","NA","xpyriment","Jazzy James","3.1.6","0","2","legacy","1024","2","48000","-16","experiment","152","even","legacy","NA","present","absent","NA","NA","NA","NA","NA","NA","NA","NA","NA","NA","NA","NA","NA","2904","NA","NA","NA","NA","NA","NA","NA","NA","NA","NA","2906","NA","NA","NA","NA","NA","NA","NA","2906","2905","2906","NA","NA","lineup1","no","NA","no","1366"
"","white","no","xpyriment","legacy","legacy","0","NA","relative","1","1","NA","1","1","NA","NA","NA","NA","NA","0","NA","0","0","0","0","NA","NA","NA","NA","NA","0","NA","NA","3","NA","0","1","NA","NA","NA","NA","0","0","0","0","NA","11/10/18 12:35:57","Executes Python code","yes","","lineup_videoVIPER.osexp","C:/Users/standalone/Desktop/Sat 10 Nov HS 1.25","no","mono","no","24","no","black","no","yes","male","768","NA","NA","NA","NA","legacy","no","0","0","C:/Users/standalone/Desktop/Sat 10 Nov HS 1.25/subject-152.csv","NA","3","6","2","1","5","4","xpyriment","Jazzy James","3.1.6","0","2","legacy","1024","2","48000","-16","experiment","152","even","legacy","[target1]","present","absent","NA","2979","NA","NA","2979","NA","NA","NA","NA","NA","NA","NA","NA","2904","2971","2974","NA","NA","NA","NA","NA","NA","NA","NA","2979","NA","2974","2979","NA","NA","NA","NA","2906","2905","2906","NA","NA","lineup1","no","NA","no","1366"
"","white","no","xpyriment","legacy","legacy","0","NA","relative","1","1","NA","1","1","NA","NA","NA","NA","NA","0","NA","0","0","0","0","NA","NA","NA","NA","NA","0","NA","NA","3","NA","0","1","NA","NA","NA","NA","0","0","0","0","NA","11/10/18 12:35:57","Executes Python code","yes","","lineup_videoVIPER.osexp","C:/Users/standalone/Desktop/Sat 10 Nov HS 1.25","no","mono","no","24","no","black","no","yes","male","768","NA","NA","NA","NA","legacy","no","0","0","C:/Users/standalone/Desktop/Sat 10 Nov HS 1.25/subject-152.csv","NA","3","6","2","1","5","4","xpyriment","Jazzy James","3.1.6","0","2","legacy","1024","2","48000","-16","experiment","152","even","legacy","[target1]","present","absent","NA","2979","NA","NA","2979","NA","NA","NA","NA","NA","NA","NA","NA","2904","2971","2974","NA","NA","NA","NA","NA","NA","NA","NA","3023","NA","2974","2979","NA","NA","NA","NA","2906","2905","2906","NA","NA","lineup1","no","NA","no","1366"
"","white","no","xpyriment","legacy","legacy","0","no","relative","1","1","0","1","1","0","0","0","0","0","0","0","0","0","0","0","1","0","0","0","0","0","0","0","5","0","0","1","0","0","0","0","0","0","0","0","0","11/10/18 12:35:57","Executes Python code","yes","","lineup_videoVIPER.osexp","C:/Users/standalone/Desktop/Sat 10 Nov HS 1.25","no","mono","no","24","no","black","no","yes","male","768","No","no","no","no","legacy","no","0","0","C:/Users/standalone/Desktop/Sat 10 Nov HS 1.25/subject-152.csv","[member1]","3","6","2","1","5","4","xpyriment","Jazzy James","3.1.6","0","2","legacy","1024","2","48000","-16","experiment","152","even","legacy","[target1]","present","absent","NA","2979","NA","NA","2979","NA","18269","NA","NA","NA","NA","NA","NA","2904","2971","2974","18274","NA","NA","3458","3086","3056","3086","3458","22567","NA","2974","2979","NA","NA","NA","NA","2906","2905","2906","NA","8542","lineup1","no","1","no","1366"
"","white","no","xpyriment","legacy","legacy","0","80","relative","1","1","0","1","1","1","1","0","0","0","0","1","0","0","0","0","2","0","0","1","0","0","0","1","6","0","0","1","0","0","0","0","0","0","0","0","1","11/10/18 12:35:57","Executes Python code","yes","","lineup_videoVIPER.osexp","C:/Users/standalone/Desktop/Sat 10 Nov HS 1.25","no","mono","no","24","no","black","no","yes","male","768","Yes","no","no","no","legacy","no","1","0","C:/Users/standalone/Desktop/Sat 10 Nov HS 1.25/subject-152.csv","[member2]","3","6","2","1","5","4","xpyriment","Jazzy James","3.1.6","0","2","legacy","1024","2","48000","-16","experiment","152","even","legacy","[target1]","present","absent","NA","2979","NA","NA","2979","39938","32859","NA","NA","NA","NA","32859","NA","2904","2971","2974","27715","NA","NA","3458","3086","3056","3086","22824","39938","NA","2974","2979","NA","NA","NA","NA","2906","2905","2906","NA","22824","lineup1","no","2","no","1366"
"","white","no","xpyriment","legacy","legacy","0","no","relative","1","1","0","1","1","2","2","0","0","0","0","2","0","0","0","0","3","0","0","2","0","0","0","2","7","0","0","1","0","0","0","0","0","0","0","0","2","11/10/18 12:35:57","Executes Python code","yes","","lineup_videoVIPER.osexp","C:/Users/standalone/Desktop/Sat 10 Nov HS 1.25","no","mono","no","24","no","black","no","yes","male","768","No","no","no","no","legacy","no","2","0","C:/Users/standalone/Desktop/Sat 10 Nov HS 1.25/subject-152.csv","[member3]","3","6","2","1","5","4","xpyriment","Jazzy James","3.1.6","0","2","legacy","1024","2","48000","-16","experiment","152","even","legacy","[target1]","present","absent","NA","2979","NA","NA","2979","39938","44752","NA","NA","NA","NA","32859","NA","2904","2971","2974","42021","NA","NA","3458","3086","3056","3086","40204","44752","NA","2974","2979","NA","NA","NA","NA","2906","2905","2906","NA","40204","lineup1","no","3","no","1366"
"","white","no","xpyriment","legacy","legacy","0","no","relative","1","1","0","1","1","3","3","0","0","0","0","3","0","0","0","0","4","0","0","3","0","0","0","3","8","0","0","1","0","0","0","0","0","0","0","0","3","11/10/18 12:35:57","Executes Python code","yes","","lineup_videoVIPER.osexp","C:/Users/standalone/Desktop/Sat 10 Nov HS 1.25","no","mono","no","24","no","black","no","yes","male","768","No","no","no","no","legacy","no","3","0","C:/Users/standalone/Desktop/Sat 10 Nov HS 1.25/subject-152.csv","[member4]","3","6","2","1","5","4","xpyriment","Jazzy James","3.1.6","0","2","legacy","1024","2","48000","-16","experiment","152","even","legacy","[target1]","present","absent","NA","2979","NA","NA","2979","39938","51560","NA","NA","NA","NA","32859","NA","2904","2971","2974","48036","NA","NA","3458","3086","3056","3086","45008","51560","NA","2974","2979","NA","NA","NA","NA","2906","2905","2906","NA","45008","lineup1","no","4","no","1366"
"","white","no","xpyriment","legacy","legacy","0","no","relative","1","1","0","1","1","4","4","0","0","0","0","4","0","0","0","0","5","0","0","4","0","0","0","4","9","0","0","1","0","0","0","0","0","0","0","0","4","11/10/18 12:35:57","Executes Python code","yes","","lineup_videoVIPER.osexp","C:/Users/standalone/Desktop/Sat 10 Nov HS 1.25","no","mono","no","24","no","black","no","yes","male","768","No","no","no","no","legacy","no","4","0","C:/Users/standalone/Desktop/Sat 10 Nov HS 1.25/subject-152.csv","[member5]","3","6","2","1","5","4","xpyriment","Jazzy James","3.1.6","0","2","legacy","1024","2","48000","-16","experiment","152","even","legacy","[target1]","present","absent","NA","2979","NA","NA","2979","39938","55248","NA","NA","NA","NA","32859","NA","2904","2971","2974","53119","NA","NA","3458","3086","3056","3086","51827","55248","NA","2974","2979","NA","NA","NA","NA","2906","2905","2906","NA","51827","lineup1","no","5","no","1366"
"","white","no","xpyriment","legacy","legacy","0","no","relative","1","1","0","1","1","5","5","0","0","0","0","5","0","0","0","0","6","0","0","5","0","0","0","5","10","0","0","1","0","0","0","0","0","0","0","0","5","11/10/18 12:35:57","Executes Python code","yes","","lineup_videoVIPER.osexp","C:/Users/standalone/Desktop/Sat 10 Nov HS 1.25","no","mono","no","24","no","black","no","yes","male","768","No","no","no","no","legacy","no","5","0","C:/Users/standalone/Desktop/Sat 10 Nov HS 1.25/subject-152.csv","[member6]","3","6","2","1","5","4","xpyriment","Jazzy James","3.1.6","0","2","legacy","1024","2","48000","-16","experiment","152","even","legacy","[target1]","present","absent","NA","2979","NA","NA","2979","39938","60072","NA","NA","NA","NA","32859","NA","2904","2971","2974","56975","NA","NA","3458","3086","3056","3086","55501","60072","NA","2974","2979","NA","NA","NA","NA","2906","2905","2906","NA","55501","lineup1","no","6","no","1366"
"","white","no","xpyriment","legacy","legacy","0","no","relative","1","1","0","1","1","5","5","0","0","0","0","5","0","0","0","0","6","0","0","5","0","0","0","5","10","0","0","1","0","0","0","0","0","0","0","0","5","11/10/18 12:35:57","Executes Python code","yes","","lineup_videoVIPER.osexp","C:/Users/standalone/Desktop/Sat 10 Nov HS 1.25","no","mono","no","24","no","black","no","yes","male","768","No","Yes","One","No","legacy","no","5","0","C:/Users/standalone/Desktop/Sat 10 Nov HS 1.25/subject-152.csv","[member6]","3","6","2","1","5","4","xpyriment","Jazzy James","3.1.6","0","2","legacy","1024","2","48000","-16","experiment","152","even","legacy","[target1]","present","absent","NA","2979","69610","NA","2979","39938","60072","64532","69610","81263","NA","32859","NA","2904","2971","2974","56975","NA","NA","3458","3086","3056","3086","55501","81263","60125","2974","2979","64532","74278","NA","NA","2906","2905","2906","NA","55501","lineup1","no","6","no","1366"
"","white","no","xpyriment","legacy","legacy","0","no","relative","2","2","0","2","2","5","5","0","0","0","0","5","0","0","0","1","6","0","0","5","0","1","0","5","11","0","1","2","0","0","0","0","0","0","0","0","5","11/10/18 12:35:57","Executes Python code","yes","","lineup_videoVIPER.osexp","C:/Users/standalone/Desktop/Sat 10 Nov HS 1.25","no","mono","no","24","no","black","no","yes","female","768","No","Yes","One","No","legacy","no","0","0","C:/Users/standalone/Desktop/Sat 10 Nov HS 1.25/subject-152.csv","[member6]","4","7","3","2","1","5","xpyriment","Jazzy James","3.1.6","0","2","legacy","1024","2","48000","-16","experiment","152","even","legacy","[target2]","present","absent","81329","2979","69610","81329","2979","39938","60072","64532","69610","81263","NA","32859","NA","2904","2971","81327","56975","NA","NA","3458","3086","3056","3086","55501","81329","60125","81327","81329","64532","74278","NA","NA","2906","2905","2906","NA","55501","lineup1","no","6","no","1366"
"","white","no","xpyriment","legacy","legacy","0","no","relative","2","2","1","2","2","6","6","1","1","1","0","6","0","0","0","1","7","1","1","6","1","1","1","6","13","1","1","2","1","1","1","1","0","0","0","0","6","11/10/18 12:35:57","Executes Python code","yes","","lineup_videoVIPER.osexp","C:/Users/standalone/Desktop/Sat 10 Nov HS 1.25","no","mono","no","24","no","black","no","yes","female","768","Not sure","no","no","no","legacy","no","0","0","C:/Users/standalone/Desktop/Sat 10 Nov HS 1.25/subject-152.csv","[member1]","4","7","3","2","1","5","xpyriment","Jazzy James","3.1.6","0","2","legacy","1024","2","48000","-16","experiment","152","even","legacy","[target2]","present","absent","81329","2979","69610","81329","2979","39938","97870","64532","69610","81263","NA","32859","NA","2904","2971","81327","94677","NA","NA","81607","81396","81366","81396","81607","97870","60125","81327","81329","64532","74278","NA","NA","2906","2905","2906","NA","83525","lineup1","no","1","no","1366"
"","white","no","xpyriment","legacy","legacy","0","no","relative","2","2","1","2","2","7","7","1","1","1","0","7","0","0","0","1","8","1","1","7","1","1","1","7","14","1","1","2","1","1","1","1","0","0","0","0","7","11/10/18 12:35:57","Executes Python code","yes","","lineup_videoVIPER.osexp","C:/Users/standalone/Desktop/Sat 10 Nov HS 1.25","no","mono","no","24","no","black","no","yes","female","768","No","no","no","no","legacy","no","1","0","C:/Users/standalone/Desktop/Sat 10 Nov HS 1.25/subject-152.csv","[member2]","4","7","3","2","1","5","xpyriment","Jazzy James","3.1.6","0","2","legacy","1024","2","48000","-16","experiment","152","even","legacy","[target2]","present","absent","81329","2979","69610","81329","2979","39938","103270","64532","69610","81263","NA","32859","NA","2904","2971","81327","99397","NA","NA","81607","81396","81366","81396","98149","103270","60125","81327","81329","64532","74278","NA","NA","2906","2905","2906","NA","98150","lineup1","no","2","no","1366"
"","white","no","xpyriment","legacy","legacy","0","no","relative","2","2","1","2","2","8","8","1","1","1","0","8","0","0","0","1","9","1","1","8","1","1","1","8","15","1","1","2","1","1","1","1","0","0","0","0","8","11/10/18 12:35:57","Executes Python code","yes","","lineup_videoVIPER.osexp","C:/Users/standalone/Desktop/Sat 10 Nov HS 1.25","no","mono","no","24","no","black","no","yes","female","768","No","no","no","no","legacy","no","2","0","C:/Users/standalone/Desktop/Sat 10 Nov HS 1.25/subject-152.csv","[member3]","4","7","3","2","1","5","xpyriment","Jazzy James","3.1.6","0","2","legacy","1024","2","48000","-16","experiment","152","even","legacy","[target2]","present","absent","81329","2979","69610","81329","2979","39938","108314","64532","69610","81263","NA","32859","NA","2904","2971","81327","104827","NA","NA","81607","81396","81366","81396","103538","108314","60125","81327","81329","64532","74278","NA","NA","2906","2905","2906","NA","103538","lineup1","no","3","no","1366"
"","white","no","xpyriment","legacy","legacy","0","no","relative","2","2","1","2","2","9","9","1","1","1","0","9","0","0","0","1","10","1","1","9","1","1","1","9","16","1","1","2","1","1","1","1","0","0","0","0","9","11/10/18 12:35:57","Executes Python code","yes","","lineup_videoVIPER.osexp","C:/Users/standalone/Desktop/Sat 10 Nov HS 1.25","no","mono","no","24","no","black","no","yes","female","768","No","no","no","no","legacy","no","3","0","C:/Users/standalone/Desktop/Sat 10 Nov HS 1.25/subject-152.csv","[member4]","4","7","3","2","1","5","xpyriment","Jazzy James","3.1.6","0","2","legacy","1024","2","48000","-16","experiment","152","even","legacy","[target2]","present","absent","81329","2979","69610","81329","2979","39938","114676","64532","69610","81263","NA","32859","NA","2904","2971","81327","111540","NA","NA","81607","81396","81366","81396","108601","114676","60125","81327","81329","64532","74278","NA","NA","2906","2905","2906","NA","108601","lineup1","no","4","no","1366"
"","white","no","xpyriment","legacy","legacy","0","no","relative","2","2","1","2","2","10","10","1","1","1","0","10","0","0","0","1","11","1","1","10","1","1","1","10","17","1","1","2","1","1","1","1","0","0","0","0","10","11/10/18 12:35:57","Executes Python code","yes","","lineup_videoVIPER.osexp","C:/Users/standalone/Desktop/Sat 10 Nov HS 1.25","no","mono","no","24","no","black","no","yes","female","768","No","no","no","no","legacy","no","4","0","C:/Users/standalone/Desktop/Sat 10 Nov HS 1.25/subject-152.csv","[member5]","4","7","3","2","1","5","xpyriment","Jazzy James","3.1.6","0","2","legacy","1024","2","48000","-16","experiment","152","even","legacy","[target2]","present","absent","81329","2979","69610","81329","2979","39938","122183","64532","69610","81263","NA","32859","NA","2904","2971","81327","118087","NA","NA","81607","81396","81366","81396","114956","122183","60125","81327","81329","64532","74278","NA","NA","2906","2905","2906","NA","114956","lineup1","no","5","no","1366"
"","white","no","xpyriment","legacy","legacy","0","no","relative","2","2","1","2","2","11","11","1","1","1","0","11","0","0","0","1","12","1","1","11","1","1","1","11","18","1","1","2","1","1","1","1","0","0","0","0","11","11/10/18 12:35:57","Executes Python code","yes","","lineup_videoVIPER.osexp","C:/Users/standalone/Desktop/Sat 10 Nov HS 1.25","no","mono","no","24","no","black","no","yes","female","768","Not sure","no","no","no","legacy","no","5","0","C:/Users/standalone/Desktop/Sat 10 Nov HS 1.25/subject-152.csv","[member6]","4","7","3","2","1","5","xpyriment","Jazzy James","3.1.6","0","2","legacy","1024","2","48000","-16","experiment","152","even","legacy","[target2]","present","absent","81329","2979","69610","81329","2979","39938","133177","64532","69610","81263","NA","32859","NA","2904","2971","81327","128038","NA","NA","81607","81396","81366","81396","122442","133177","60125","81327","81329","64532","74278","NA","NA","2906","2905","2906","NA","122442","lineup1","no","6","no","1366"
"","white","no","xpyriment","legacy","legacy","0","no","relative","2","2","1","2","2","11","11","1","1","1","0","11","0","0","0","1","12","1","1","11","1","1","1","11","18","1","1","2","1","1","1","1","0","0","0","0","11","11/10/18 12:35:57","Executes Python code","yes","","lineup_videoVIPER.osexp","C:/Users/standalone/Desktop/Sat 10 Nov HS 1.25","no","mono","no","24","no","black","no","yes","female","768","Not sure","No","no","No","legacy","no","5","0","C:/Users/standalone/Desktop/Sat 10 Nov HS 1.25/subject-152.csv","[member6]","4","7","3","2","1","5","xpyriment","Jazzy James","3.1.6","0","2","legacy","1024","2","48000","-16","experiment","152","even","legacy","[target2]","present","absent","81329","2979","142425","81329","2979","39938","133177","142425","69610","150611","NA","32859","NA","2904","2971","81327","128038","NA","NA","81607","81396","81366","81396","122442","150611","133240","81327","81329","64532","145284","NA","NA","2906","2905","2906","NA","122442","lineup1","no","6","no","1366"
"","white","no","xpyriment","legacy","legacy","0","no","relative","2","2","1","2","2","11","11","1","1","1","0","11","0","0","0","1","12","1","1","11","1","1","1","11","18","1","1","2","1","1","1","1","0","0","0","0","11","11/10/18 12:35:57","Executes Python code","yes","","lineup_videoVIPER.osexp","C:/Users/standalone/Desktop/Sat 10 Nov HS 1.25","no","mono","no","24","no","black","no","yes","female","768","Not sure","No","no","No","legacy","12.15pm","5","0","C:/Users/standalone/Desktop/Sat 10 Nov HS 1.25/subject-152.csv","[member6]","4","7","3","2","1","5","xpyriment","Jazzy James","3.1.6","0","2","legacy","1024","2","48000","-16","experiment","152","even","legacy","[target2]","present","absent","81329","2979","142425","81329","2979","39938","133177","142425","69610","150611","162252","32859","162252","2904","2971","81327","128038","NA","NA","81607","81396","81366","81396","122442","164081","133240","81327","81329","64532","145284","NA","NA","2906","2905","2906","150674","122442","lineup1","no","6","no","1366"
