"_prepare","background","bidi","canvas_backend","clock_backend","color_backend","compensation","confidence_immediate","coordinates","count_TA_sequence_setting","count_TP_sequence_setting","count_admin_check","count_check_TA","count_check_TP","count_check_confidence_imm","count_check_identification","count_check_made_identification","count_check_multiple_identification","count_check_proceeding_identification","count_check_time_of_exposure","count_confidence_imm","count_end_of_experiment","count_experiment","count_gender_lineup_loop","count_gender_randomization_sequence","count_identification_task","count_instructions_after_multiple","count_instructions_after_proceed_identification","count_instructions_before_view","count_lineup_loop","count_lineup_procedure_loop","count_lineup_procedure_sequence","count_lineup_sequence","count_logger","count_made_identification","count_member_randomization_loop","count_member_randomization_sequence","count_multiple_identification","count_proceed_identification","count_repeat_lineup_sequence_identification","count_repeat_lineup_sequence_multiple","count_target_setting","count_target_setting_loop","count_target_setting_sequence","count_time_of_exposure","count_video","datetime","description","disable_garbage_collection","empty_column","experiment_file","experiment_path","font_bold","font_family","font_italic","font_size","font_underline","foreground","form_clicks","fullscreen","gender","height","identification","identification_made","identification_multiple","identification_proceed","keyboard_backend","lecture_time","live_row","live_row_target_setting_loop","logfile","member","member1","member2","member3","member4","member5","member6","mouse_backend","opensesame_codename","opensesame_version","repeat_cycle","round_decimals","sampler_backend","sound_buf_size","sound_channels","sound_freq","sound_sample_size","start","subject_nr","subject_parity","synth_backend","target","target1","target2","time_TA_sequence_setting","time_TP_sequence_setting","time_admin_check","time_check_TA","time_check_TP","time_check_confidence_imm","time_check_identification","time_check_made_identification","time_check_multiple_identification","time_check_proceeding_identification","time_check_time_of_exposure","time_confidence_imm","time_end_of_experiment","time_experiment","time_gender_lineup_loop","time_gender_randomization_sequence","time_identification_task","time_instructions_after_multiple","time_instructions_after_proceed_identification","time_instructions_before_view","time_lineup_loop","time_lineup_procedure_loop","time_lineup_procedure_sequence","time_lineup_sequence","time_logger","time_made_identification","time_member_randomization_loop","time_member_randomization_sequence","time_multiple_identification","time_proceed_identification","time_repeat_lineup_sequence_identification","time_repeat_lineup_sequence_multiple","time_target_setting","time_target_setting_loop","time_target_setting_sequence","time_time_of_exposure","time_video","title","transparent_variables","trial","uniform_coordinates","width"
"","white","no","xpyriment","legacy","legacy","0","NA","relative","NA","NA","NA","NA","NA","NA","NA","NA","NA","NA","0","NA","0","0","0","NA","NA","NA","NA","NA","NA","NA","NA","NA","1","NA","NA","NA","NA","NA","NA","NA","0","0","0","0","NA","11/10/18 12:27:17","Executes Python code","yes","","lineup_videoVIPER.osexp","C:/Users/standalone/Desktop/Sat 10 Nov HS 1.25","no","mono","no","24","no","black","no","yes","NA","768","NA","NA","NA","NA","legacy","no","0","0","C:/Users/standalone/Desktop/Sat 10 Nov HS 1.25/subject-151.csv","NA","NA","NA","NA","NA","NA","NA","xpyriment","Jazzy James","3.1.6","0","2","legacy","1024","2","48000","-16","experiment","151","odd","legacy","NA","absent","present","NA","NA","NA","NA","NA","NA","NA","NA","NA","NA","NA","NA","NA","2880","NA","NA","NA","NA","NA","NA","NA","NA","NA","NA","2882","NA","NA","NA","NA","NA","NA","NA","2882","2880","2882","NA","NA","lineup1","no","NA","no","1366"
"","white","no","xpyriment","legacy","legacy","0","NA","relative","0","0","NA","0","0","NA","NA","NA","NA","NA","0","NA","0","0","0","0","NA","NA","NA","NA","NA","0","NA","NA","2","NA","0","0","NA","NA","NA","NA","0","0","0","0","NA","11/10/18 12:27:17","Executes Python code","yes","","lineup_videoVIPER.osexp","C:/Users/standalone/Desktop/Sat 10 Nov HS 1.25","no","mono","no","24","no","black","no","yes","female","768","NA","NA","NA","NA","legacy","no","0","0","C:/Users/standalone/Desktop/Sat 10 Nov HS 1.25/subject-151.csv","NA","4","6","5","1","3","2","xpyriment","Jazzy James","3.1.6","0","2","legacy","1024","2","48000","-16","experiment","151","odd","legacy","[target2]","absent","present","NA","2943","NA","NA","2944","NA","NA","NA","NA","NA","NA","NA","NA","2880","2938","2941","NA","NA","NA","NA","NA","NA","NA","NA","2944","NA","2941","2943","NA","NA","NA","NA","2882","2880","2882","NA","NA","lineup1","no","NA","no","1366"
"","white","no","xpyriment","legacy","legacy","0","no","relative","0","0","0","0","0","0","0","0","0","0","0","0","0","0","0","0","0","0","0","0","0","0","0","0","4","0","0","0","0","0","0","0","0","0","0","0","0","11/10/18 12:27:17","Executes Python code","yes","","lineup_videoVIPER.osexp","C:/Users/standalone/Desktop/Sat 10 Nov HS 1.25","no","mono","no","24","no","black","no","yes","female","768","No","no","no","no","legacy","no","0","0","C:/Users/standalone/Desktop/Sat 10 Nov HS 1.25/subject-151.csv","[member1]","4","6","5","1","3","2","xpyriment","Jazzy James","3.1.6","0","2","legacy","1024","2","48000","-16","experiment","151","odd","legacy","[target2]","absent","present","NA","2943","NA","NA","2944","NA","28457","NA","NA","NA","NA","NA","NA","2880","2938","2941","21122","NA","NA","3366","3013","2984","3013","3366","28457","NA","2941","2943","NA","NA","NA","NA","2882","2880","2882","NA","7425","lineup1","no","1","no","1366"
"","white","no","xpyriment","legacy","legacy","0","no","relative","0","0","0","0","0","1","1","0","0","0","0","1","0","0","0","0","1","0","0","1","0","0","0","1","5","0","0","0","0","0","0","0","0","0","0","0","1","11/10/18 12:27:17","Executes Python code","yes","","lineup_videoVIPER.osexp","C:/Users/standalone/Desktop/Sat 10 Nov HS 1.25","no","mono","no","24","no","black","no","yes","female","768","No","no","no","no","legacy","no","1","0","C:/Users/standalone/Desktop/Sat 10 Nov HS 1.25/subject-151.csv","[member2]","4","6","5","1","3","2","xpyriment","Jazzy James","3.1.6","0","2","legacy","1024","2","48000","-16","experiment","151","odd","legacy","[target2]","absent","present","NA","2943","NA","NA","2944","NA","42961","NA","NA","NA","NA","NA","NA","2880","2938","2941","39540","NA","NA","3366","3013","2984","3013","28724","42961","NA","2941","2943","NA","NA","NA","NA","2882","2880","2882","NA","28724","lineup1","no","2","no","1366"
"","white","no","xpyriment","legacy","legacy","0","no","relative","0","0","0","0","0","2","2","0","0","0","0","2","0","0","0","0","2","0","0","2","0","0","0","2","6","0","0","0","0","0","0","0","0","0","0","0","2","11/10/18 12:27:17","Executes Python code","yes","","lineup_videoVIPER.osexp","C:/Users/standalone/Desktop/Sat 10 Nov HS 1.25","no","mono","no","24","no","black","no","yes","female","768","No","no","no","no","legacy","no","2","0","C:/Users/standalone/Desktop/Sat 10 Nov HS 1.25/subject-151.csv","[member3]","4","6","5","1","3","2","xpyriment","Jazzy James","3.1.6","0","2","legacy","1024","2","48000","-16","experiment","151","odd","legacy","[target2]","absent","present","NA","2943","NA","NA","2944","NA","58985","NA","NA","NA","NA","NA","NA","2880","2938","2941","54982","NA","NA","3366","3013","2984","3013","43217","58985","NA","2941","2943","NA","NA","NA","NA","2882","2880","2882","NA","43217","lineup1","no","3","no","1366"
"","white","no","xpyriment","legacy","legacy","0","no","relative","0","0","0","0","0","3","3","0","0","0","0","3","0","0","0","0","3","0","0","3","0","0","0","3","7","0","0","0","0","0","0","0","0","0","0","0","3","11/10/18 12:27:17","Executes Python code","yes","","lineup_videoVIPER.osexp","C:/Users/standalone/Desktop/Sat 10 Nov HS 1.25","no","mono","no","24","no","black","no","yes","female","768","No","no","no","no","legacy","no","3","0","C:/Users/standalone/Desktop/Sat 10 Nov HS 1.25/subject-151.csv","[member4]","4","6","5","1","3","2","xpyriment","Jazzy James","3.1.6","0","2","legacy","1024","2","48000","-16","experiment","151","odd","legacy","[target2]","absent","present","NA","2943","NA","NA","2944","NA","75141","NA","NA","NA","NA","NA","NA","2880","2938","2941","71930","NA","NA","3366","3013","2984","3013","59262","75141","NA","2941","2943","NA","NA","NA","NA","2882","2880","2882","NA","59262","lineup1","no","4","no","1366"
"","white","no","xpyriment","legacy","legacy","0","no","relative","0","0","0","0","0","4","4","0","0","0","0","4","0","0","0","0","4","0","0","4","0","0","0","4","8","0","0","0","0","0","0","0","0","0","0","0","4","11/10/18 12:27:17","Executes Python code","yes","","lineup_videoVIPER.osexp","C:/Users/standalone/Desktop/Sat 10 Nov HS 1.25","no","mono","no","24","no","black","no","yes","female","768","No","no","no","no","legacy","no","4","0","C:/Users/standalone/Desktop/Sat 10 Nov HS 1.25/subject-151.csv","[member5]","4","6","5","1","3","2","xpyriment","Jazzy James","3.1.6","0","2","legacy","1024","2","48000","-16","experiment","151","odd","legacy","[target2]","absent","present","NA","2943","NA","NA","2944","NA","81284","NA","NA","NA","NA","NA","NA","2880","2938","2941","78318","NA","NA","3366","3013","2984","3013","75453","81284","NA","2941","2943","NA","NA","NA","NA","2882","2880","2882","NA","75454","lineup1","no","5","no","1366"
"","white","no","xpyriment","legacy","legacy","0","no","relative","0","0","0","0","0","5","5","0","0","0","0","5","0","0","0","0","5","0","0","5","0","0","0","5","9","0","0","0","0","0","0","0","0","0","0","0","5","11/10/18 12:27:17","Executes Python code","yes","","lineup_videoVIPER.osexp","C:/Users/standalone/Desktop/Sat 10 Nov HS 1.25","no","mono","no","24","no","black","no","yes","female","768","No","no","no","no","legacy","no","5","0","C:/Users/standalone/Desktop/Sat 10 Nov HS 1.25/subject-151.csv","[member6]","4","6","5","1","3","2","xpyriment","Jazzy James","3.1.6","0","2","legacy","1024","2","48000","-16","experiment","151","odd","legacy","[target2]","absent","present","NA","2943","NA","NA","2944","NA","86883","NA","NA","NA","NA","NA","NA","2880","2938","2941","83916","NA","NA","3366","3013","2984","3013","81546","86883","NA","2941","2943","NA","NA","NA","NA","2882","2880","2882","NA","81546","lineup1","no","6","no","1366"
"","white","no","xpyriment","legacy","legacy","0","no","relative","0","0","1","0","0","6","6","1","1","1","0","6","0","0","0","0","6","1","1","6","1","0","1","6","11","1","0","0","1","1","1","1","0","0","0","0","6","11/10/18 12:27:17","Executes Python code","yes","","lineup_videoVIPER.osexp","C:/Users/standalone/Desktop/Sat 10 Nov HS 1.25","no","mono","no","24","no","black","no","yes","female","768","Not sure","no","no","no","legacy","no","0","0","C:/Users/standalone/Desktop/Sat 10 Nov HS 1.25/subject-151.csv","[member1]","4","6","5","1","3","2","xpyriment","Jazzy James","3.1.6","0","2","legacy","1024","2","48000","-16","experiment","151","odd","legacy","[target2]","absent","present","NA","2943","100458","NA","2944","NA","138255","100458","NA","109063","NA","NA","NA","2880","2938","2941","132507","NA","109063","111743","111525","2984","111525","111743","138255","86940","2941","2943","NA","102713","111496","NA","2882","2880","2882","NA","113143","lineup1","no","1","no","1366"
"","white","no","xpyriment","legacy","legacy","0","70","relative","0","0","1","0","0","7","7","1","1","1","0","7","0","0","0","0","7","1","1","7","1","0","1","7","12","1","0","0","1","1","1","1","0","0","0","0","7","11/10/18 12:27:17","Executes Python code","yes","","lineup_videoVIPER.osexp","C:/Users/standalone/Desktop/Sat 10 Nov HS 1.25","no","mono","no","24","no","black","no","yes","female","768","Yes","no","no","no","legacy","no","1","0","C:/Users/standalone/Desktop/Sat 10 Nov HS 1.25/subject-151.csv","[member2]","4","6","5","1","3","2","xpyriment","Jazzy James","3.1.6","0","2","legacy","1024","2","48000","-16","experiment","151","odd","legacy","[target2]","absent","present","NA","2943","100458","NA","2944","166006","160230","100458","NA","109063","NA","160230","NA","2880","2938","2941","156628","NA","109063","111743","111525","2984","111525","138520","166006","86940","2941","2943","NA","102713","111496","NA","2882","2880","2882","NA","138521","lineup1","no","2","no","1366"
"","white","no","xpyriment","legacy","legacy","0","no","relative","0","0","1","0","0","8","8","1","1","1","0","8","0","0","0","0","8","1","1","8","1","0","1","8","13","1","0","0","1","1","1","1","0","0","0","0","8","11/10/18 12:27:17","Executes Python code","yes","","lineup_videoVIPER.osexp","C:/Users/standalone/Desktop/Sat 10 Nov HS 1.25","no","mono","no","24","no","black","no","yes","female","768","No","no","no","no","legacy","no","2","0","C:/Users/standalone/Desktop/Sat 10 Nov HS 1.25/subject-151.csv","[member3]","4","6","5","1","3","2","xpyriment","Jazzy James","3.1.6","0","2","legacy","1024","2","48000","-16","experiment","151","odd","legacy","[target2]","absent","present","NA","2943","100458","NA","2944","166006","170106","100458","NA","109063","NA","160230","NA","2880","2938","2941","167572","NA","109063","111743","111525","2984","111525","166318","170106","86940","2941","2943","NA","102713","111496","NA","2882","2880","2882","NA","166318","lineup1","no","3","no","1366"
"","white","no","xpyriment","legacy","legacy","0","no","relative","0","0","1","0","0","9","9","1","1","1","0","9","0","0","0","0","9","1","1","9","1","0","1","9","14","1","0","0","1","1","1","1","0","0","0","0","9","11/10/18 12:27:17","Executes Python code","yes","","lineup_videoVIPER.osexp","C:/Users/standalone/Desktop/Sat 10 Nov HS 1.25","no","mono","no","24","no","black","no","yes","female","768","No","no","no","no","legacy","no","3","0","C:/Users/standalone/Desktop/Sat 10 Nov HS 1.25/subject-151.csv","[member4]","4","6","5","1","3","2","xpyriment","Jazzy James","3.1.6","0","2","legacy","1024","2","48000","-16","experiment","151","odd","legacy","[target2]","absent","present","NA","2943","100458","NA","2944","166006","173820","100458","NA","109063","NA","160230","NA","2880","2938","2941","171090","NA","109063","111743","111525","2984","111525","170387","173820","86940","2941","2943","NA","102713","111496","NA","2882","2880","2882","NA","170387","lineup1","no","4","no","1366"
"","white","no","xpyriment","legacy","legacy","0","no","relative","0","0","1","0","0","10","10","1","1","1","0","10","0","0","0","0","10","1","1","10","1","0","1","10","15","1","0","0","1","1","1","1","0","0","0","0","10","11/10/18 12:27:17","Executes Python code","yes","","lineup_videoVIPER.osexp","C:/Users/standalone/Desktop/Sat 10 Nov HS 1.25","no","mono","no","24","no","black","no","yes","female","768","No","no","no","no","legacy","no","4","0","C:/Users/standalone/Desktop/Sat 10 Nov HS 1.25/subject-151.csv","[member5]","4","6","5","1","3","2","xpyriment","Jazzy James","3.1.6","0","2","legacy","1024","2","48000","-16","experiment","151","odd","legacy","[target2]","absent","present","NA","2943","100458","NA","2944","166006","177010","100458","NA","109063","NA","160230","NA","2880","2938","2941","174658","NA","109063","111743","111525","2984","111525","174082","177010","86940","2941","2943","NA","102713","111496","NA","2882","2880","2882","NA","174082","lineup1","no","5","no","1366"
"","white","no","xpyriment","legacy","legacy","0","no","relative","0","0","1","0","0","11","11","1","1","1","0","11","0","0","0","0","11","1","1","11","1","0","1","11","16","1","0","0","1","1","1","1","0","0","0","0","11","11/10/18 12:27:17","Executes Python code","yes","","lineup_videoVIPER.osexp","C:/Users/standalone/Desktop/Sat 10 Nov HS 1.25","no","mono","no","24","no","black","no","yes","female","768","No","no","no","no","legacy","no","5","0","C:/Users/standalone/Desktop/Sat 10 Nov HS 1.25/subject-151.csv","[member6]","4","6","5","1","3","2","xpyriment","Jazzy James","3.1.6","0","2","legacy","1024","2","48000","-16","experiment","151","odd","legacy","[target2]","absent","present","NA","2943","100458","NA","2944","166006","179873","100458","NA","109063","NA","160230","NA","2880","2938","2941","177724","NA","109063","111743","111525","2984","111525","177272","179874","86940","2941","2943","NA","102713","111496","NA","2882","2880","2882","NA","177272","lineup1","no","6","no","1366"
"","white","no","xpyriment","legacy","legacy","0","no","relative","0","0","1","0","0","11","11","1","1","1","0","11","0","0","0","0","11","1","1","11","1","0","1","11","16","1","0","0","1","1","1","1","0","0","0","0","11","11/10/18 12:27:17","Executes Python code","yes","","lineup_videoVIPER.osexp","C:/Users/standalone/Desktop/Sat 10 Nov HS 1.25","no","mono","no","24","no","black","no","yes","female","768","No","Yes","One","No","legacy","no","5","0","C:/Users/standalone/Desktop/Sat 10 Nov HS 1.25/subject-151.csv","[member6]","4","6","5","1","3","2","xpyriment","Jazzy James","3.1.6","0","2","legacy","1024","2","48000","-16","experiment","151","odd","legacy","[target2]","absent","present","NA","2943","195022","NA","2944","166006","179873","184180","195022","203167","NA","160230","NA","2880","2938","2941","177724","NA","109063","111743","111525","2984","111525","177272","203168","179926","2941","2943","184180","198488","111496","NA","2882","2880","2882","NA","177272","lineup1","no","6","no","1366"
"","white","no","xpyriment","legacy","legacy","0","no","relative","0","0","1","0","0","11","11","1","1","1","0","11","0","0","0","0","11","1","1","11","1","0","1","11","16","1","0","0","1","1","1","1","0","0","0","0","11","11/10/18 12:27:17","Executes Python code","yes","","lineup_videoVIPER.osexp","C:/Users/standalone/Desktop/Sat 10 Nov HS 1.25","no","mono","no","24","no","black","no","yes","female","768","No","Yes","One","No","legacy","no","5","0","C:/Users/standalone/Desktop/Sat 10 Nov HS 1.25/subject-151.csv","[member6]","4","6","5","1","3","2","xpyriment","Jazzy James","3.1.6","0","2","legacy","1024","2","48000","-16","experiment","151","odd","legacy","[target2]","absent","present","NA","2943","195022","NA","2944","166006","179873","184180","195022","203167","NA","160230","NA","2880","2938","2941","177724","NA","109063","111743","111525","2984","111525","177272","203216","179926","2941","2943","184180","198488","111496","NA","2882","2880","2882","NA","177272","lineup1","no","6","no","1366"
"","white","no","xpyriment","legacy","legacy","0","no","relative","2","2","1","2","2","11","11","1","1","1","0","11","0","0","0","1","11","1","1","11","1","1","1","11","18","1","1","2","1","1","1","1","0","0","0","0","11","11/10/18 12:27:17","Executes Python code","yes","","lineup_videoVIPER.osexp","C:/Users/standalone/Desktop/Sat 10 Nov HS 1.25","no","mono","no","24","no","black","no","yes","male","768","No","Yes","One","No","legacy","no","0","0","C:/Users/standalone/Desktop/Sat 10 Nov HS 1.25/subject-151.csv","[member6]","2","5","3","7","1","4","xpyriment","Jazzy James","3.1.6","0","2","legacy","1024","2","48000","-16","experiment","151","odd","legacy","[target1]","absent","present","203276","2943","195022","203276","2944","166006","179873","184180","195022","203167","NA","160230","NA","2880","2938","203271","177724","NA","109063","111743","111525","2984","111525","177272","203276","179926","203271","203275","184180","198488","111496","NA","2882","2880","2882","NA","177272","lineup1","no","6","no","1366"
"","white","no","xpyriment","legacy","legacy","0","no","relative","2","2","1","2","2","11","11","1","1","1","0","11","0","0","0","1","11","1","1","11","1","1","1","11","18","1","1","2","1","1","1","1","0","0","0","0","11","11/10/18 12:27:17","Executes Python code","yes","","lineup_videoVIPER.osexp","C:/Users/standalone/Desktop/Sat 10 Nov HS 1.25","no","mono","no","24","no","black","no","yes","male","768","No","Yes","One","No","legacy","no","0","0","C:/Users/standalone/Desktop/Sat 10 Nov HS 1.25/subject-151.csv","[member6]","2","5","3","7","1","4","xpyriment","Jazzy James","3.1.6","0","2","legacy","1024","2","48000","-16","experiment","151","odd","legacy","[target1]","absent","present","203276","2943","195022","203276","2944","166006","179873","184180","195022","203167","NA","160230","NA","2880","2938","203271","177724","NA","109063","111743","111525","2984","111525","177272","203315","179926","203271","203275","184180","198488","111496","NA","2882","2880","2882","NA","177272","lineup1","no","6","no","1366"
"","white","no","xpyriment","legacy","legacy","0","no","relative","2","2","2","2","2","12","12","2","2","2","0","12","0","0","0","1","12","2","2","12","2","1","2","12","20","2","1","2","2","2","2","2","0","0","0","0","12","11/10/18 12:27:17","Executes Python code","yes","","lineup_videoVIPER.osexp","C:/Users/standalone/Desktop/Sat 10 Nov HS 1.25","no","mono","no","24","no","black","no","yes","male","768","No","no","no","no","legacy","no","0","0","C:/Users/standalone/Desktop/Sat 10 Nov HS 1.25/subject-151.csv","[member1]","2","5","3","7","1","4","xpyriment","Jazzy James","3.1.6","0","2","legacy","1024","2","48000","-16","experiment","151","odd","legacy","[target1]","absent","present","203276","2943","195022","203276","2944","166006","212708","184180","195022","203167","NA","160230","NA","2880","2938","203271","209322","NA","109063","203608","203385","203358","203385","203608","212708","179926","203271","203275","184180","198488","111496","NA","2882","2880","2882","NA","205872","lineup1","no","1","no","1366"
"","white","no","xpyriment","legacy","legacy","0","no","relative","2","2","2","2","2","13","13","2","2","2","0","13","0","0","0","1","13","2","2","13","2","1","2","13","21","2","1","2","2","2","2","2","0","0","0","0","13","11/10/18 12:27:17","Executes Python code","yes","","lineup_videoVIPER.osexp","C:/Users/standalone/Desktop/Sat 10 Nov HS 1.25","no","mono","no","24","no","black","no","yes","male","768","Not sure","no","no","no","legacy","no","1","0","C:/Users/standalone/Desktop/Sat 10 Nov HS 1.25/subject-151.csv","[member2]","2","5","3","7","1","4","xpyriment","Jazzy James","3.1.6","0","2","legacy","1024","2","48000","-16","experiment","151","odd","legacy","[target1]","absent","present","203276","2943","195022","203276","2944","166006","223489","184180","195022","203167","NA","160230","NA","2880","2938","203271","221245","NA","109063","203608","203385","203358","203385","212980","223490","179926","203271","203275","184180","198488","111496","NA","2882","2880","2882","NA","212980","lineup1","no","2","no","1366"
"","white","no","xpyriment","legacy","legacy","0","no","relative","2","2","2","2","2","14","14","2","2","2","0","14","0","0","0","1","14","2","2","14","2","1","2","14","22","2","1","2","2","2","2","2","0","0","0","0","14","11/10/18 12:27:17","Executes Python code","yes","","lineup_videoVIPER.osexp","C:/Users/standalone/Desktop/Sat 10 Nov HS 1.25","no","mono","no","24","no","black","no","yes","male","768","No","no","no","no","legacy","no","2","0","C:/Users/standalone/Desktop/Sat 10 Nov HS 1.25/subject-151.csv","[member3]","2","5","3","7","1","4","xpyriment","Jazzy James","3.1.6","0","2","legacy","1024","2","48000","-16","experiment","151","odd","legacy","[target1]","absent","present","203276","2943","195022","203276","2944","166006","227032","184180","195022","203167","NA","160230","NA","2880","2938","203271","224499","NA","109063","203608","203385","203358","203385","223762","227032","179926","203271","203275","184180","198488","111496","NA","2882","2880","2882","NA","223762","lineup1","no","3","no","1366"
"","white","no","xpyriment","legacy","legacy","0","no","relative","2","2","2","2","2","15","15","2","2","2","0","15","0","0","0","1","15","2","2","15","2","1","2","15","23","2","1","2","2","2","2","2","0","0","0","0","15","11/10/18 12:27:17","Executes Python code","yes","","lineup_videoVIPER.osexp","C:/Users/standalone/Desktop/Sat 10 Nov HS 1.25","no","mono","no","24","no","black","no","yes","male","768","No","no","no","no","legacy","no","3","0","C:/Users/standalone/Desktop/Sat 10 Nov HS 1.25/subject-151.csv","[member4]","2","5","3","7","1","4","xpyriment","Jazzy James","3.1.6","0","2","legacy","1024","2","48000","-16","experiment","151","odd","legacy","[target1]","absent","present","203276","2943","195022","203276","2944","166006","230377","184180","195022","203167","NA","160230","NA","2880","2938","203271","228029","NA","109063","203608","203385","203358","203385","227291","230377","179926","203271","203275","184180","198488","111496","NA","2882","2880","2882","NA","227292","lineup1","no","4","no","1366"
"","white","no","xpyriment","legacy","legacy","0","no","relative","2","2","2","2","2","16","16","2","2","2","0","16","0","0","0","1","16","2","2","16","2","1","2","16","24","2","1","2","2","2","2","2","0","0","0","0","16","11/10/18 12:27:17","Executes Python code","yes","","lineup_videoVIPER.osexp","C:/Users/standalone/Desktop/Sat 10 Nov HS 1.25","no","mono","no","24","no","black","no","yes","male","768","No","no","no","no","legacy","no","4","0","C:/Users/standalone/Desktop/Sat 10 Nov HS 1.25/subject-151.csv","[member5]","2","5","3","7","1","4","xpyriment","Jazzy James","3.1.6","0","2","legacy","1024","2","48000","-16","experiment","151","odd","legacy","[target1]","absent","present","203276","2943","195022","203276","2944","166006","233488","184180","195022","203167","NA","160230","NA","2880","2938","203271","231338","NA","109063","203608","203385","203358","203385","230648","233488","179926","203271","203275","184180","198488","111496","NA","2882","2880","2882","NA","230648","lineup1","no","5","no","1366"
"","white","no","xpyriment","legacy","legacy","0","no","relative","2","2","2","2","2","17","17","2","2","2","0","17","0","0","0","1","17","2","2","17","2","1","2","17","25","2","1","2","2","2","2","2","0","0","0","0","17","11/10/18 12:27:17","Executes Python code","yes","","lineup_videoVIPER.osexp","C:/Users/standalone/Desktop/Sat 10 Nov HS 1.25","no","mono","no","24","no","black","no","yes","male","768","No","no","no","no","legacy","no","5","0","C:/Users/standalone/Desktop/Sat 10 Nov HS 1.25/subject-151.csv","[member6]","2","5","3","7","1","4","xpyriment","Jazzy James","3.1.6","0","2","legacy","1024","2","48000","-16","experiment","151","odd","legacy","[target1]","absent","present","203276","2943","195022","203276","2944","166006","237313","184180","195022","203167","NA","160230","NA","2880","2938","203271","234762","NA","109063","203608","203385","203358","203385","233741","237313","179926","203271","203275","184180","198488","111496","NA","2882","2880","2882","NA","233741","lineup1","no","6","no","1366"
"","white","no","xpyriment","legacy","legacy","0","no","relative","2","2","2","2","2","17","17","2","2","2","0","17","0","0","0","1","17","2","2","17","2","1","2","17","25","2","1","2","2","2","2","2","0","0","0","0","17","11/10/18 12:27:17","Executes Python code","yes","","lineup_videoVIPER.osexp","C:/Users/standalone/Desktop/Sat 10 Nov HS 1.25","no","mono","no","24","no","black","no","yes","male","768","No","No","no","No","legacy","no","5","0","C:/Users/standalone/Desktop/Sat 10 Nov HS 1.25/subject-151.csv","[member6]","2","5","3","7","1","4","xpyriment","Jazzy James","3.1.6","0","2","legacy","1024","2","48000","-16","experiment","151","odd","legacy","[target1]","absent","present","203276","2943","243540","203276","2944","166006","237313","243540","195022","248774","NA","160230","NA","2880","2938","203271","234762","NA","109063","203608","203385","203358","203385","233741","248774","237357","203271","203275","184180","244764","111496","NA","2882","2880","2882","NA","233741","lineup1","no","6","no","1366"
"","white","no","xpyriment","legacy","legacy","0","no","relative","2","2","2","2","2","17","17","2","2","2","0","17","0","0","0","1","17","2","2","17","2","1","2","17","25","2","1","2","2","2","2","2","0","0","0","0","17","11/10/18 12:27:17","Executes Python code","yes","","lineup_videoVIPER.osexp","C:/Users/standalone/Desktop/Sat 10 Nov HS 1.25","no","mono","no","24","no","black","no","yes","male","768","No","No","no","No","legacy","12.15pm","5","0","C:/Users/standalone/Desktop/Sat 10 Nov HS 1.25/subject-151.csv","[member6]","2","5","3","7","1","4","xpyriment","Jazzy James","3.1.6","0","2","legacy","1024","2","48000","-16","experiment","151","odd","legacy","[target1]","absent","present","203276","2943","243540","203276","2944","166006","237313","243540","195022","248774","259420","160230","259420","2880","2938","203271","234762","NA","109063","203608","203385","203358","203385","233741","260831","237357","203271","203275","184180","244764","111496","NA","2882","2880","2882","248838","233741","lineup1","no","6","no","1366"
