"_prepare"	"background"	"bidi"	"canvas_backend"	"clock_backend"	"color_backend"	"compensation"	"confidence_immediate"	"coordinates"	"count_TA_sequence_setting"	"count_TP_sequence_setting"	"count_admin_check"	"count_check_TA"	"count_check_TP"	"count_check_confidence_imm"	"count_check_identification"	"count_check_made_identification"	"count_check_multiple_identification"	"count_check_proceeding_identification"	"count_confidence_imm"	"count_end_of_experiment"	"count_experiment"	"count_gender_lineup_loop"	"count_gender_randomization_sequence"	"count_identification_task"	"count_instructions_after_multiple"	"count_instructions_after_proceed_identification"	"count_instructions_before_view"	"count_lineup_loop"	"count_lineup_procedure_loop"	"count_lineup_procedure_sequence"	"count_lineup_sequence"	"count_logger"	"count_made_identification"	"count_member_randomization_loop"	"count_member_randomization_sequence"	"count_multiple_identification"	"count_proceed_identification"	"count_repeat_lineup_sequence_identification"	"count_repeat_lineup_sequence_multiple"	"count_target_setting"	"count_target_setting_loop"	"count_target_setting_sequence"	"count_video"	"datetime"	"description"	"disable_garbage_collection"	"empty_column"	"experiment_file"	"experiment_path"	"font_bold"	"font_family"	"font_italic"	"font_size"	"font_underline"	"foreground"	"form_clicks"	"fullscreen"	"gender"	"height"	"identification"	"identification_made"	"identification_multiple"	"identification_proceed"	"keyboard_backend"	"live_row"	"live_row_target_setting_loop"	"logfile"	"member"	"member1"	"member2"	"member3"	"member4"	"member5"	"member6"	"mouse_backend"	"opensesame_codename"	"opensesame_version"	"repeat_cycle"	"round_decimals"	"sampler_backend"	"sound_buf_size"	"sound_channels"	"sound_freq"	"sound_sample_size"	"start"	"subject_nr"	"subject_parity"	"synth_backend"	"target"	"target1"	"target2"	"time_TA_sequence_setting"	"time_TP_sequence_setting"	"time_admin_check"	"time_check_TA"	"time_check_TP"	"time_check_confidence_imm"	"time_check_identification"	"time_check_made_identification"	"time_check_multiple_identification"	"time_check_proceeding_identification"	"time_confidence_imm"	"time_end_of_experiment"	"time_experiment"	"time_gender_lineup_loop"	"time_gender_randomization_sequence"	"time_identification_task"	"time_instructions_after_multiple"	"time_instructions_after_proceed_identification"	"time_instructions_before_view"	"time_lineup_loop"	"time_lineup_procedure_loop"	"time_lineup_procedure_sequence"	"time_lineup_sequence"	"time_logger"	"time_made_identification"	"time_member_randomization_loop"	"time_member_randomization_sequence"	"time_multiple_identification"	"time_proceed_identification"	"time_repeat_lineup_sequence_identification"	"time_repeat_lineup_sequence_multiple"	"time_target_setting"	"time_target_setting_loop"	"time_target_setting_sequence"	"time_video"	"title"	"transparent_variables"	"trial"	"uniform_coordinates"	"width"
"1"	""	"white"	"no"	"xpyriment"	"legacy"	"legacy"	"0"	NA	"relative"	NA	NA	NA	NA	NA	NA	NA	NA	NA	NA	NA	"0"	"0"	"0"	NA	NA	NA	NA	NA	NA	NA	NA	NA	"1"	NA	NA	NA	NA	NA	NA	NA	"0"	"0"	"0"	NA	"02/21/18 14:39:43"	"Executes Python code"	"yes"	""	"lineup_videoVIPER_W.osexp"	"C:/Users/standalone/Desktop/Wednesday 2102"	"no"	"mono"	"no"	"24"	"no"	"black"	"no"	"yes"	NA	"768"	NA	NA	NA	NA	"legacy"	"0"	"0"	"C:/Users/standalone/Desktop/Wednesday 2102/subject-75.csv"	NA	NA	NA	NA	NA	NA	NA	"xpyriment"	"Jazzy James"	"3.1.6"	"0"	"2"	"legacy"	"1024"	"2"	"48000"	"-16"	"experiment"	"75"	"odd"	"legacy"	NA	"present"	"absent"	NA	NA	NA	NA	NA	NA	NA	NA	NA	NA	NA	NA	"2334"	NA	NA	NA	NA	NA	NA	NA	NA	NA	NA	"2336"	NA	NA	NA	NA	NA	NA	NA	"2335"	"2334"	"2335"	NA	"lineup1"	"no"	NA	"no"	"1366"
"2"	""	"white"	"no"	"xpyriment"	"legacy"	"legacy"	"0"	NA	"relative"	"0"	"0"	NA	"0"	"0"	NA	NA	NA	NA	NA	NA	"0"	"0"	"0"	"0"	NA	NA	NA	NA	NA	"0"	NA	NA	"2"	NA	"0"	"0"	NA	NA	NA	NA	"0"	"0"	"0"	NA	"02/21/18 14:39:43"	"Executes Python code"	"yes"	""	"lineup_videoVIPER_W.osexp"	"C:/Users/standalone/Desktop/Wednesday 2102"	"no"	"mono"	"no"	"24"	"no"	"black"	"no"	"yes"	"female"	"768"	NA	NA	NA	NA	"legacy"	"0"	"0"	"C:/Users/standalone/Desktop/Wednesday 2102/subject-75.csv"	NA	"1"	"4"	"2"	"5"	"3"	"7"	"xpyriment"	"Jazzy James"	"3.1.6"	"0"	"2"	"legacy"	"1024"	"2"	"48000"	"-16"	"experiment"	"75"	"odd"	"legacy"	"[target2]"	"present"	"absent"	"2393"	NA	NA	"2394"	NA	NA	NA	NA	NA	NA	NA	NA	"2334"	"2388"	"2391"	NA	NA	NA	NA	NA	NA	NA	NA	"2394"	NA	"2391"	"2393"	NA	NA	NA	NA	"2335"	"2334"	"2335"	NA	"lineup1"	"no"	NA	"no"	"1366"
"3"	""	"white"	"no"	"xpyriment"	"legacy"	"legacy"	"0"	"no"	"relative"	"0"	"0"	"0"	"0"	"0"	"0"	"0"	"0"	"0"	"0"	"0"	"0"	"0"	"0"	"0"	"0"	"0"	"0"	"0"	"0"	"0"	"0"	"0"	"4"	"0"	"0"	"0"	"0"	"0"	"0"	"0"	"0"	"0"	"0"	"0"	"02/21/18 14:39:43"	"Executes Python code"	"yes"	""	"lineup_videoVIPER_W.osexp"	"C:/Users/standalone/Desktop/Wednesday 2102"	"no"	"mono"	"no"	"24"	"no"	"black"	"no"	"yes"	"female"	"768"	"No"	"no"	"no"	"no"	"legacy"	"0"	"0"	"C:/Users/standalone/Desktop/Wednesday 2102/subject-75.csv"	"[member1]"	"1"	"4"	"2"	"5"	"3"	"7"	"xpyriment"	"Jazzy James"	"3.1.6"	"0"	"2"	"legacy"	"1024"	"2"	"48000"	"-16"	"experiment"	"75"	"odd"	"legacy"	"[target2]"	"present"	"absent"	"2393"	NA	NA	"2394"	NA	NA	"28966"	NA	NA	NA	NA	NA	"2334"	"2388"	"2391"	"23030"	NA	NA	"2805"	"2461"	"2436"	"2461"	"2805"	"28966"	NA	"2391"	"2393"	NA	NA	NA	NA	"2335"	"2334"	"2335"	"14583"	"lineup1"	"no"	"1"	"no"	"1366"
"4"	""	"white"	"no"	"xpyriment"	"legacy"	"legacy"	"0"	"no"	"relative"	"0"	"0"	"0"	"0"	"0"	"1"	"1"	"0"	"0"	"0"	"1"	"0"	"0"	"0"	"0"	"1"	"0"	"0"	"1"	"0"	"0"	"0"	"1"	"5"	"0"	"0"	"0"	"0"	"0"	"0"	"0"	"0"	"0"	"0"	"1"	"02/21/18 14:39:43"	"Executes Python code"	"yes"	""	"lineup_videoVIPER_W.osexp"	"C:/Users/standalone/Desktop/Wednesday 2102"	"no"	"mono"	"no"	"24"	"no"	"black"	"no"	"yes"	"female"	"768"	"No"	"no"	"no"	"no"	"legacy"	"1"	"0"	"C:/Users/standalone/Desktop/Wednesday 2102/subject-75.csv"	"[member2]"	"1"	"4"	"2"	"5"	"3"	"7"	"xpyriment"	"Jazzy James"	"3.1.6"	"0"	"2"	"legacy"	"1024"	"2"	"48000"	"-16"	"experiment"	"75"	"odd"	"legacy"	"[target2]"	"present"	"absent"	"2393"	NA	NA	"2394"	NA	NA	"37673"	NA	NA	NA	NA	NA	"2334"	"2388"	"2391"	"34359"	NA	NA	"2805"	"2461"	"2436"	"2461"	"29194"	"37673"	NA	"2391"	"2393"	NA	NA	NA	NA	"2335"	"2334"	"2335"	"29194"	"lineup1"	"no"	"2"	"no"	"1366"
"5"	""	"white"	"no"	"xpyriment"	"legacy"	"legacy"	"0"	"no"	"relative"	"0"	"0"	"0"	"0"	"0"	"2"	"2"	"0"	"0"	"0"	"2"	"0"	"0"	"0"	"0"	"2"	"0"	"0"	"2"	"0"	"0"	"0"	"2"	"6"	"0"	"0"	"0"	"0"	"0"	"0"	"0"	"0"	"0"	"0"	"2"	"02/21/18 14:39:43"	"Executes Python code"	"yes"	""	"lineup_videoVIPER_W.osexp"	"C:/Users/standalone/Desktop/Wednesday 2102"	"no"	"mono"	"no"	"24"	"no"	"black"	"no"	"yes"	"female"	"768"	"No"	"no"	"no"	"no"	"legacy"	"2"	"0"	"C:/Users/standalone/Desktop/Wednesday 2102/subject-75.csv"	"[member3]"	"1"	"4"	"2"	"5"	"3"	"7"	"xpyriment"	"Jazzy James"	"3.1.6"	"0"	"2"	"legacy"	"1024"	"2"	"48000"	"-16"	"experiment"	"75"	"odd"	"legacy"	"[target2]"	"present"	"absent"	"2393"	NA	NA	"2394"	NA	NA	"52814"	NA	NA	NA	NA	NA	"2334"	"2388"	"2391"	"50455"	NA	NA	"2805"	"2461"	"2436"	"2461"	"37931"	"52814"	NA	"2391"	"2393"	NA	NA	NA	NA	"2335"	"2334"	"2335"	"37931"	"lineup1"	"no"	"3"	"no"	"1366"
"6"	""	"white"	"no"	"xpyriment"	"legacy"	"legacy"	"0"	"no"	"relative"	"0"	"0"	"0"	"0"	"0"	"3"	"3"	"0"	"0"	"0"	"3"	"0"	"0"	"0"	"0"	"3"	"0"	"0"	"3"	"0"	"0"	"0"	"3"	"7"	"0"	"0"	"0"	"0"	"0"	"0"	"0"	"0"	"0"	"0"	"3"	"02/21/18 14:39:43"	"Executes Python code"	"yes"	""	"lineup_videoVIPER_W.osexp"	"C:/Users/standalone/Desktop/Wednesday 2102"	"no"	"mono"	"no"	"24"	"no"	"black"	"no"	"yes"	"female"	"768"	"No"	"no"	"no"	"no"	"legacy"	"3"	"0"	"C:/Users/standalone/Desktop/Wednesday 2102/subject-75.csv"	"[member4]"	"1"	"4"	"2"	"5"	"3"	"7"	"xpyriment"	"Jazzy James"	"3.1.6"	"0"	"2"	"legacy"	"1024"	"2"	"48000"	"-16"	"experiment"	"75"	"odd"	"legacy"	"[target2]"	"present"	"absent"	"2393"	NA	NA	"2394"	NA	NA	"71713"	NA	NA	NA	NA	NA	"2334"	"2388"	"2391"	"66711"	NA	NA	"2805"	"2461"	"2436"	"2461"	"53069"	"71713"	NA	"2391"	"2393"	NA	NA	NA	NA	"2335"	"2334"	"2335"	"53069"	"lineup1"	"no"	"4"	"no"	"1366"
"7"	""	"white"	"no"	"xpyriment"	"legacy"	"legacy"	"0"	"no"	"relative"	"0"	"0"	"0"	"0"	"0"	"4"	"4"	"0"	"0"	"0"	"4"	"0"	"0"	"0"	"0"	"4"	"0"	"0"	"4"	"0"	"0"	"0"	"4"	"8"	"0"	"0"	"0"	"0"	"0"	"0"	"0"	"0"	"0"	"0"	"4"	"02/21/18 14:39:43"	"Executes Python code"	"yes"	""	"lineup_videoVIPER_W.osexp"	"C:/Users/standalone/Desktop/Wednesday 2102"	"no"	"mono"	"no"	"24"	"no"	"black"	"no"	"yes"	"female"	"768"	"No"	"no"	"no"	"no"	"legacy"	"4"	"0"	"C:/Users/standalone/Desktop/Wednesday 2102/subject-75.csv"	"[member5]"	"1"	"4"	"2"	"5"	"3"	"7"	"xpyriment"	"Jazzy James"	"3.1.6"	"0"	"2"	"legacy"	"1024"	"2"	"48000"	"-16"	"experiment"	"75"	"odd"	"legacy"	"[target2]"	"present"	"absent"	"2393"	NA	NA	"2394"	NA	NA	"79951"	NA	NA	NA	NA	NA	"2334"	"2388"	"2391"	"75409"	NA	NA	"2805"	"2461"	"2436"	"2461"	"71959"	"79951"	NA	"2391"	"2393"	NA	NA	NA	NA	"2335"	"2334"	"2335"	"71959"	"lineup1"	"no"	"5"	"no"	"1366"
"8"	""	"white"	"no"	"xpyriment"	"legacy"	"legacy"	"0"	"60"	"relative"	"0"	"0"	"0"	"0"	"0"	"5"	"5"	"0"	"0"	"0"	"5"	"0"	"0"	"0"	"0"	"5"	"0"	"0"	"5"	"0"	"0"	"0"	"5"	"9"	"0"	"0"	"0"	"0"	"0"	"0"	"0"	"0"	"0"	"0"	"5"	"02/21/18 14:39:43"	"Executes Python code"	"yes"	""	"lineup_videoVIPER_W.osexp"	"C:/Users/standalone/Desktop/Wednesday 2102"	"no"	"mono"	"no"	"24"	"no"	"black"	"no"	"yes"	"female"	"768"	"Yes"	"no"	"no"	"no"	"legacy"	"5"	"0"	"C:/Users/standalone/Desktop/Wednesday 2102/subject-75.csv"	"[member6]"	"1"	"4"	"2"	"5"	"3"	"7"	"xpyriment"	"Jazzy James"	"3.1.6"	"0"	"2"	"legacy"	"1024"	"2"	"48000"	"-16"	"experiment"	"75"	"odd"	"legacy"	"[target2]"	"present"	"absent"	"2393"	NA	NA	"2394"	NA	"120040"	"105769"	NA	NA	NA	"105769"	NA	"2334"	"2388"	"2391"	"95542"	NA	NA	"2805"	"2461"	"2436"	"2461"	"80207"	"120040"	NA	"2391"	"2393"	NA	NA	NA	NA	"2335"	"2334"	"2335"	"80207"	"lineup1"	"no"	"6"	"no"	"1366"
"9"	""	"white"	"no"	"xpyriment"	"legacy"	"legacy"	"0"	"60"	"relative"	"0"	"0"	"0"	"0"	"0"	"5"	"5"	"0"	"0"	"0"	"5"	"0"	"0"	"0"	"0"	"5"	"0"	"0"	"5"	"0"	"0"	"0"	"5"	"9"	"0"	"0"	"0"	"0"	"0"	"0"	"0"	"0"	"0"	"0"	"5"	"02/21/18 14:39:43"	"Executes Python code"	"yes"	""	"lineup_videoVIPER_W.osexp"	"C:/Users/standalone/Desktop/Wednesday 2102"	"no"	"mono"	"no"	"24"	"no"	"black"	"no"	"yes"	"female"	"768"	"Yes"	"Yes"	"One"	"No"	"legacy"	"5"	"0"	"C:/Users/standalone/Desktop/Wednesday 2102/subject-75.csv"	"[member6]"	"1"	"4"	"2"	"5"	"3"	"7"	"xpyriment"	"Jazzy James"	"3.1.6"	"0"	"2"	"legacy"	"1024"	"2"	"48000"	"-16"	"experiment"	"75"	"odd"	"legacy"	"[target2]"	"present"	"absent"	"2393"	NA	"132629"	"2394"	NA	"120040"	"105769"	"125579"	"132629"	"141321"	"105769"	NA	"2334"	"2388"	"2391"	"95542"	NA	NA	"2805"	"2461"	"2436"	"2461"	"80207"	"141321"	"120086"	"2391"	"2393"	"125579"	"137296"	NA	NA	"2335"	"2334"	"2335"	"80207"	"lineup1"	"no"	"6"	"no"	"1366"
"10"	""	"white"	"no"	"xpyriment"	"legacy"	"legacy"	"0"	"60"	"relative"	"4"	"4"	"0"	"4"	"4"	"5"	"5"	"0"	"0"	"0"	"5"	"0"	"0"	"0"	"1"	"5"	"0"	"0"	"5"	"0"	"1"	"0"	"5"	"13"	"0"	"1"	"4"	"0"	"0"	"0"	"0"	"0"	"0"	"0"	"5"	"02/21/18 14:39:43"	"Executes Python code"	"yes"	""	"lineup_videoVIPER_W.osexp"	"C:/Users/standalone/Desktop/Wednesday 2102"	"no"	"mono"	"no"	"24"	"no"	"black"	"no"	"yes"	"male"	"768"	"Yes"	"Yes"	"One"	"No"	"legacy"	"0"	"0"	"C:/Users/standalone/Desktop/Wednesday 2102/subject-75.csv"	"[member6]"	"3"	"5"	"6"	"2"	"4"	"1"	"xpyriment"	"Jazzy James"	"3.1.6"	"0"	"2"	"legacy"	"1024"	"2"	"48000"	"-16"	"experiment"	"75"	"odd"	"legacy"	"[target1]"	"present"	"absent"	"2393"	"141399"	"132629"	"2394"	"141399"	"120040"	"105769"	"125579"	"132629"	"141321"	"105769"	NA	"2334"	"2388"	"141390"	"95542"	NA	NA	"2805"	"2461"	"2436"	"2461"	"80207"	"141399"	"120086"	"141390"	"141399"	"125579"	"137296"	NA	NA	"2335"	"2334"	"2335"	"80207"	"lineup1"	"no"	"6"	"no"	"1366"
"11"	""	"white"	"no"	"xpyriment"	"legacy"	"legacy"	"0"	"60"	"relative"	"4"	"4"	"0"	"4"	"4"	"5"	"5"	"0"	"0"	"0"	"5"	"0"	"0"	"0"	"1"	"5"	"0"	"0"	"5"	"0"	"1"	"0"	"5"	"13"	"0"	"1"	"4"	"0"	"0"	"0"	"0"	"0"	"0"	"0"	"5"	"02/21/18 14:39:43"	"Executes Python code"	"yes"	""	"lineup_videoVIPER_W.osexp"	"C:/Users/standalone/Desktop/Wednesday 2102"	"no"	"mono"	"no"	"24"	"no"	"black"	"no"	"yes"	"male"	"768"	"Yes"	"Yes"	"One"	"No"	"legacy"	"0"	"0"	"C:/Users/standalone/Desktop/Wednesday 2102/subject-75.csv"	"[member6]"	"3"	"5"	"6"	"2"	"4"	"1"	"xpyriment"	"Jazzy James"	"3.1.6"	"0"	"2"	"legacy"	"1024"	"2"	"48000"	"-16"	"experiment"	"75"	"odd"	"legacy"	"[target1]"	"present"	"absent"	"2393"	"141399"	"132629"	"2394"	"141399"	"120040"	"105769"	"125579"	"132629"	"141321"	"105769"	NA	"2334"	"2388"	"141390"	"95542"	NA	NA	"2805"	"2461"	"2436"	"2461"	"80207"	"141432"	"120086"	"141390"	"141399"	"125579"	"137296"	NA	NA	"2335"	"2334"	"2335"	"80207"	"lineup1"	"no"	"6"	"no"	"1366"
"12"	""	"white"	"no"	"xpyriment"	"legacy"	"legacy"	"0"	"60"	"relative"	"4"	"4"	"0"	"4"	"4"	"5"	"5"	"0"	"0"	"0"	"5"	"0"	"0"	"0"	"1"	"5"	"0"	"0"	"5"	"0"	"1"	"0"	"5"	"13"	"0"	"1"	"4"	"0"	"0"	"0"	"0"	"0"	"0"	"0"	"5"	"02/21/18 14:39:43"	"Executes Python code"	"yes"	""	"lineup_videoVIPER_W.osexp"	"C:/Users/standalone/Desktop/Wednesday 2102"	"no"	"mono"	"no"	"24"	"no"	"black"	"no"	"yes"	"male"	"768"	"Yes"	"Yes"	"One"	"No"	"legacy"	"0"	"0"	"C:/Users/standalone/Desktop/Wednesday 2102/subject-75.csv"	"[member6]"	"3"	"5"	"6"	"2"	"4"	"1"	"xpyriment"	"Jazzy James"	"3.1.6"	"0"	"2"	"legacy"	"1024"	"2"	"48000"	"-16"	"experiment"	"75"	"odd"	"legacy"	"[target1]"	"present"	"absent"	"2393"	"141399"	"132629"	"2394"	"141399"	"120040"	"105769"	"125579"	"132629"	"141321"	"105769"	NA	"2334"	"2388"	"141390"	"95542"	NA	NA	"2805"	"2461"	"2436"	"2461"	"80207"	"141466"	"120086"	"141390"	"141399"	"125579"	"137296"	NA	NA	"2335"	"2334"	"2335"	"80207"	"lineup1"	"no"	"6"	"no"	"1366"
"13"	""	"white"	"no"	"xpyriment"	"legacy"	"legacy"	"0"	"60"	"relative"	"4"	"4"	"0"	"4"	"4"	"5"	"5"	"0"	"0"	"0"	"5"	"0"	"0"	"0"	"1"	"5"	"0"	"0"	"5"	"0"	"1"	"0"	"5"	"13"	"0"	"1"	"4"	"0"	"0"	"0"	"0"	"0"	"0"	"0"	"5"	"02/21/18 14:39:43"	"Executes Python code"	"yes"	""	"lineup_videoVIPER_W.osexp"	"C:/Users/standalone/Desktop/Wednesday 2102"	"no"	"mono"	"no"	"24"	"no"	"black"	"no"	"yes"	"male"	"768"	"Yes"	"Yes"	"One"	"No"	"legacy"	"0"	"0"	"C:/Users/standalone/Desktop/Wednesday 2102/subject-75.csv"	"[member6]"	"3"	"5"	"6"	"2"	"4"	"1"	"xpyriment"	"Jazzy James"	"3.1.6"	"0"	"2"	"legacy"	"1024"	"2"	"48000"	"-16"	"experiment"	"75"	"odd"	"legacy"	"[target1]"	"present"	"absent"	"2393"	"141399"	"132629"	"2394"	"141399"	"120040"	"105769"	"125579"	"132629"	"141321"	"105769"	NA	"2334"	"2388"	"141390"	"95542"	NA	NA	"2805"	"2461"	"2436"	"2461"	"80207"	"141495"	"120086"	"141390"	"141399"	"125579"	"137296"	NA	NA	"2335"	"2334"	"2335"	"80207"	"lineup1"	"no"	"6"	"no"	"1366"
"14"	""	"white"	"no"	"xpyriment"	"legacy"	"legacy"	"0"	"no"	"relative"	"4"	"4"	"1"	"4"	"4"	"6"	"6"	"1"	"1"	"1"	"6"	"0"	"0"	"0"	"1"	"6"	"1"	"1"	"6"	"1"	"1"	"1"	"6"	"15"	"1"	"1"	"4"	"1"	"1"	"1"	"1"	"0"	"0"	"0"	"6"	"02/21/18 14:39:43"	"Executes Python code"	"yes"	""	"lineup_videoVIPER_W.osexp"	"C:/Users/standalone/Desktop/Wednesday 2102"	"no"	"mono"	"no"	"24"	"no"	"black"	"no"	"yes"	"male"	"768"	"Not sure"	"no"	"no"	"no"	"legacy"	"0"	"0"	"C:/Users/standalone/Desktop/Wednesday 2102/subject-75.csv"	"[member1]"	"3"	"5"	"6"	"2"	"4"	"1"	"xpyriment"	"Jazzy James"	"3.1.6"	"0"	"2"	"legacy"	"1024"	"2"	"48000"	"-16"	"experiment"	"75"	"odd"	"legacy"	"[target1]"	"present"	"absent"	"2393"	"141399"	"132629"	"2394"	"141399"	"120040"	"174373"	"125579"	"132629"	"141321"	"105769"	NA	"2334"	"2388"	"141390"	"171639"	NA	NA	"141761"	"141566"	"141541"	"141566"	"141761"	"174374"	"120086"	"141390"	"141399"	"125579"	"137296"	NA	NA	"2335"	"2334"	"2335"	"146279"	"lineup1"	"no"	"1"	"no"	"1366"
"15"	""	"white"	"no"	"xpyriment"	"legacy"	"legacy"	"0"	"no"	"relative"	"4"	"4"	"1"	"4"	"4"	"7"	"7"	"1"	"1"	"1"	"7"	"0"	"0"	"0"	"1"	"7"	"1"	"1"	"7"	"1"	"1"	"1"	"7"	"16"	"1"	"1"	"4"	"1"	"1"	"1"	"1"	"0"	"0"	"0"	"7"	"02/21/18 14:39:43"	"Executes Python code"	"yes"	""	"lineup_videoVIPER_W.osexp"	"C:/Users/standalone/Desktop/Wednesday 2102"	"no"	"mono"	"no"	"24"	"no"	"black"	"no"	"yes"	"male"	"768"	"No"	"no"	"no"	"no"	"legacy"	"1"	"0"	"C:/Users/standalone/Desktop/Wednesday 2102/subject-75.csv"	"[member2]"	"3"	"5"	"6"	"2"	"4"	"1"	"xpyriment"	"Jazzy James"	"3.1.6"	"0"	"2"	"legacy"	"1024"	"2"	"48000"	"-16"	"experiment"	"75"	"odd"	"legacy"	"[target1]"	"present"	"absent"	"2393"	"141399"	"132629"	"2394"	"141399"	"120040"	"187908"	"125579"	"132629"	"141321"	"105769"	NA	"2334"	"2388"	"141390"	"185353"	NA	NA	"141761"	"141566"	"141541"	"141566"	"174611"	"187908"	"120086"	"141390"	"141399"	"125579"	"137296"	NA	NA	"2335"	"2334"	"2335"	"174611"	"lineup1"	"no"	"2"	"no"	"1366"
"16"	""	"white"	"no"	"xpyriment"	"legacy"	"legacy"	"0"	"no"	"relative"	"4"	"4"	"1"	"4"	"4"	"8"	"8"	"1"	"1"	"1"	"8"	"0"	"0"	"0"	"1"	"8"	"1"	"1"	"8"	"1"	"1"	"1"	"8"	"17"	"1"	"1"	"4"	"1"	"1"	"1"	"1"	"0"	"0"	"0"	"8"	"02/21/18 14:39:43"	"Executes Python code"	"yes"	""	"lineup_videoVIPER_W.osexp"	"C:/Users/standalone/Desktop/Wednesday 2102"	"no"	"mono"	"no"	"24"	"no"	"black"	"no"	"yes"	"male"	"768"	"No"	"no"	"no"	"no"	"legacy"	"2"	"0"	"C:/Users/standalone/Desktop/Wednesday 2102/subject-75.csv"	"[member3]"	"3"	"5"	"6"	"2"	"4"	"1"	"xpyriment"	"Jazzy James"	"3.1.6"	"0"	"2"	"legacy"	"1024"	"2"	"48000"	"-16"	"experiment"	"75"	"odd"	"legacy"	"[target1]"	"present"	"absent"	"2393"	"141399"	"132629"	"2394"	"141399"	"120040"	"205128"	"125579"	"132629"	"141321"	"105769"	NA	"2334"	"2388"	"141390"	"202209"	NA	NA	"141761"	"141566"	"141541"	"141566"	"188143"	"205128"	"120086"	"141390"	"141399"	"125579"	"137296"	NA	NA	"2335"	"2334"	"2335"	"188143"	"lineup1"	"no"	"3"	"no"	"1366"
"17"	""	"white"	"no"	"xpyriment"	"legacy"	"legacy"	"0"	"no"	"relative"	"4"	"4"	"1"	"4"	"4"	"9"	"9"	"1"	"1"	"1"	"9"	"0"	"0"	"0"	"1"	"9"	"1"	"1"	"9"	"1"	"1"	"1"	"9"	"18"	"1"	"1"	"4"	"1"	"1"	"1"	"1"	"0"	"0"	"0"	"9"	"02/21/18 14:39:43"	"Executes Python code"	"yes"	""	"lineup_videoVIPER_W.osexp"	"C:/Users/standalone/Desktop/Wednesday 2102"	"no"	"mono"	"no"	"24"	"no"	"black"	"no"	"yes"	"male"	"768"	"No"	"no"	"no"	"no"	"legacy"	"3"	"0"	"C:/Users/standalone/Desktop/Wednesday 2102/subject-75.csv"	"[member4]"	"3"	"5"	"6"	"2"	"4"	"1"	"xpyriment"	"Jazzy James"	"3.1.6"	"0"	"2"	"legacy"	"1024"	"2"	"48000"	"-16"	"experiment"	"75"	"odd"	"legacy"	"[target1]"	"present"	"absent"	"2393"	"141399"	"132629"	"2394"	"141399"	"120040"	"219594"	"125579"	"132629"	"141321"	"105769"	NA	"2334"	"2388"	"141390"	"217417"	NA	NA	"141761"	"141566"	"141541"	"141566"	"205365"	"219594"	"120086"	"141390"	"141399"	"125579"	"137296"	NA	NA	"2335"	"2334"	"2335"	"205365"	"lineup1"	"no"	"4"	"no"	"1366"
"18"	""	"white"	"no"	"xpyriment"	"legacy"	"legacy"	"0"	"no"	"relative"	"4"	"4"	"1"	"4"	"4"	"10"	"10"	"1"	"1"	"1"	"10"	"0"	"0"	"0"	"1"	"10"	"1"	"1"	"10"	"1"	"1"	"1"	"10"	"19"	"1"	"1"	"4"	"1"	"1"	"1"	"1"	"0"	"0"	"0"	"10"	"02/21/18 14:39:43"	"Executes Python code"	"yes"	""	"lineup_videoVIPER_W.osexp"	"C:/Users/standalone/Desktop/Wednesday 2102"	"no"	"mono"	"no"	"24"	"no"	"black"	"no"	"yes"	"male"	"768"	"No"	"no"	"no"	"no"	"legacy"	"4"	"0"	"C:/Users/standalone/Desktop/Wednesday 2102/subject-75.csv"	"[member5]"	"3"	"5"	"6"	"2"	"4"	"1"	"xpyriment"	"Jazzy James"	"3.1.6"	"0"	"2"	"legacy"	"1024"	"2"	"48000"	"-16"	"experiment"	"75"	"odd"	"legacy"	"[target1]"	"present"	"absent"	"2393"	"141399"	"132629"	"2394"	"141399"	"120040"	"233677"	"125579"	"132629"	"141321"	"105769"	NA	"2334"	"2388"	"141390"	"230943"	NA	NA	"141761"	"141566"	"141541"	"141566"	"219823"	"233677"	"120086"	"141390"	"141399"	"125579"	"137296"	NA	NA	"2335"	"2334"	"2335"	"219823"	"lineup1"	"no"	"5"	"no"	"1366"
"19"	""	"white"	"no"	"xpyriment"	"legacy"	"legacy"	"0"	"60"	"relative"	"4"	"4"	"1"	"4"	"4"	"11"	"11"	"1"	"1"	"1"	"11"	"0"	"0"	"0"	"1"	"11"	"1"	"1"	"11"	"1"	"1"	"1"	"11"	"20"	"1"	"1"	"4"	"1"	"1"	"1"	"1"	"0"	"0"	"0"	"11"	"02/21/18 14:39:43"	"Executes Python code"	"yes"	""	"lineup_videoVIPER_W.osexp"	"C:/Users/standalone/Desktop/Wednesday 2102"	"no"	"mono"	"no"	"24"	"no"	"black"	"no"	"yes"	"male"	"768"	"Yes"	"no"	"no"	"no"	"legacy"	"5"	"0"	"C:/Users/standalone/Desktop/Wednesday 2102/subject-75.csv"	"[member6]"	"3"	"5"	"6"	"2"	"4"	"1"	"xpyriment"	"Jazzy James"	"3.1.6"	"0"	"2"	"legacy"	"1024"	"2"	"48000"	"-16"	"experiment"	"75"	"odd"	"legacy"	"[target1]"	"present"	"absent"	"2393"	"141399"	"132629"	"2394"	"141399"	"265207"	"260711"	"125579"	"132629"	"141321"	"260711"	NA	"2334"	"2388"	"141390"	"248744"	NA	NA	"141761"	"141566"	"141541"	"141566"	"233913"	"265207"	"120086"	"141390"	"141399"	"125579"	"137296"	NA	NA	"2335"	"2334"	"2335"	"233914"	"lineup1"	"no"	"6"	"no"	"1366"
"20"	""	"white"	"no"	"xpyriment"	"legacy"	"legacy"	"0"	"60"	"relative"	"4"	"4"	"1"	"4"	"4"	"11"	"11"	"1"	"1"	"1"	"11"	"0"	"0"	"0"	"1"	"11"	"1"	"1"	"11"	"1"	"1"	"1"	"11"	"20"	"1"	"1"	"4"	"1"	"1"	"1"	"1"	"0"	"0"	"0"	"11"	"02/21/18 14:39:43"	"Executes Python code"	"yes"	""	"lineup_videoVIPER_W.osexp"	"C:/Users/standalone/Desktop/Wednesday 2102"	"no"	"mono"	"no"	"24"	"no"	"black"	"no"	"yes"	"male"	"768"	"Yes"	"Yes"	"One"	"No"	"legacy"	"5"	"0"	"C:/Users/standalone/Desktop/Wednesday 2102/subject-75.csv"	"[member6]"	"3"	"5"	"6"	"2"	"4"	"1"	"xpyriment"	"Jazzy James"	"3.1.6"	"0"	"2"	"legacy"	"1024"	"2"	"48000"	"-16"	"experiment"	"75"	"odd"	"legacy"	"[target1]"	"present"	"absent"	"2393"	"141399"	"273369"	"2394"	"141399"	"265207"	"260711"	"268868"	"273369"	"283416"	"260711"	NA	"2334"	"2388"	"141390"	"248744"	NA	NA	"141761"	"141566"	"141541"	"141566"	"233913"	"283416"	"265251"	"141390"	"141399"	"268868"	"275705"	NA	NA	"2335"	"2334"	"2335"	"233914"	"lineup1"	"no"	"6"	"no"	"1366"
"21"	""	"white"	"no"	"xpyriment"	"legacy"	"legacy"	"0"	"60"	"relative"	"4"	"4"	"1"	"4"	"4"	"11"	"11"	"1"	"1"	"1"	"11"	"0"	"0"	"0"	"1"	"11"	"1"	"1"	"11"	"1"	"1"	"1"	"11"	"20"	"1"	"1"	"4"	"1"	"1"	"1"	"1"	"0"	"0"	"0"	"11"	"02/21/18 14:39:43"	"Executes Python code"	"yes"	""	"lineup_videoVIPER_W.osexp"	"C:/Users/standalone/Desktop/Wednesday 2102"	"no"	"mono"	"no"	"24"	"no"	"black"	"no"	"yes"	"male"	"768"	"Yes"	"Yes"	"One"	"No"	"legacy"	"5"	"0"	"C:/Users/standalone/Desktop/Wednesday 2102/subject-75.csv"	"[member6]"	"3"	"5"	"6"	"2"	"4"	"1"	"xpyriment"	"Jazzy James"	"3.1.6"	"0"	"2"	"legacy"	"1024"	"2"	"48000"	"-16"	"experiment"	"75"	"odd"	"legacy"	"[target1]"	"present"	"absent"	"2393"	"141399"	"273369"	"2394"	"141399"	"265207"	"260711"	"268868"	"273369"	"283416"	"260711"	"283502"	"2334"	"2388"	"141390"	"248744"	NA	NA	"141761"	"141566"	"141541"	"141566"	"233913"	"285033"	"265251"	"141390"	"141399"	"268868"	"275705"	NA	NA	"2335"	"2334"	"2335"	"233914"	"lineup1"	"no"	"6"	"no"	"1366"
"22"	""	"white"	"no"	"xpyriment"	"legacy"	"legacy"	"0"	NA	"relative"	NA	NA	NA	NA	NA	NA	NA	NA	NA	NA	NA	"0"	"0"	"0"	NA	NA	NA	NA	NA	NA	NA	NA	NA	"1"	NA	NA	NA	NA	NA	NA	NA	"0"	"0"	"0"	NA	"02/21/18 14:48:02"	"Executes Python code"	"yes"	""	"lineup_videoVIPER_W.osexp"	"C:/Users/standalone/Desktop/Wednesday 2102"	"no"	"mono"	"no"	"24"	"no"	"black"	"no"	"yes"	NA	"768"	NA	NA	NA	NA	"legacy"	"0"	"0"	"C:/Users/standalone/Desktop/Wednesday 2102/subject-82.csv"	NA	NA	NA	NA	NA	NA	NA	"xpyriment"	"Jazzy James"	"3.1.6"	"0"	"2"	"legacy"	"1024"	"2"	"48000"	"-16"	"experiment"	"82"	"even"	"legacy"	NA	"absent"	"present"	NA	NA	NA	NA	NA	NA	NA	NA	NA	NA	NA	NA	"2385"	NA	NA	NA	NA	NA	NA	NA	NA	NA	NA	"2387"	NA	NA	NA	NA	NA	NA	NA	"2387"	"2385"	"2387"	NA	"lineup1"	"no"	NA	"no"	"1366"
"23"	""	"white"	"no"	"xpyriment"	"legacy"	"legacy"	"0"	NA	"relative"	"0"	"0"	NA	"0"	"0"	NA	NA	NA	NA	NA	NA	"0"	"0"	"0"	"0"	NA	NA	NA	NA	NA	"0"	NA	NA	"2"	NA	"0"	"0"	NA	NA	NA	NA	"0"	"0"	"0"	NA	"02/21/18 14:48:02"	"Executes Python code"	"yes"	""	"lineup_videoVIPER_W.osexp"	"C:/Users/standalone/Desktop/Wednesday 2102"	"no"	"mono"	"no"	"24"	"no"	"black"	"no"	"yes"	"male"	"768"	NA	NA	NA	NA	"legacy"	"0"	"0"	"C:/Users/standalone/Desktop/Wednesday 2102/subject-82.csv"	NA	"3"	"1"	"7"	"5"	"4"	"2"	"xpyriment"	"Jazzy James"	"3.1.6"	"0"	"2"	"legacy"	"1024"	"2"	"48000"	"-16"	"experiment"	"82"	"even"	"legacy"	"[target1]"	"absent"	"present"	"2451"	NA	NA	"2451"	NA	NA	NA	NA	NA	NA	NA	NA	"2385"	"2444"	"2448"	NA	NA	NA	NA	NA	NA	NA	NA	"2451"	NA	"2448"	"2451"	NA	NA	NA	NA	"2387"	"2385"	"2387"	NA	"lineup1"	"no"	NA	"no"	"1366"
"24"	""	"white"	"no"	"xpyriment"	"legacy"	"legacy"	"0"	"no"	"relative"	"0"	"0"	"0"	"0"	"0"	"0"	"0"	"0"	"0"	"0"	"0"	"0"	"0"	"0"	"0"	"0"	"0"	"0"	"0"	"0"	"0"	"0"	"0"	"4"	"0"	"0"	"0"	"0"	"0"	"0"	"0"	"0"	"0"	"0"	"0"	"02/21/18 14:48:02"	"Executes Python code"	"yes"	""	"lineup_videoVIPER_W.osexp"	"C:/Users/standalone/Desktop/Wednesday 2102"	"no"	"mono"	"no"	"24"	"no"	"black"	"no"	"yes"	"male"	"768"	"No"	"no"	"no"	"no"	"legacy"	"0"	"0"	"C:/Users/standalone/Desktop/Wednesday 2102/subject-82.csv"	"[member1]"	"3"	"1"	"7"	"5"	"4"	"2"	"xpyriment"	"Jazzy James"	"3.1.6"	"0"	"2"	"legacy"	"1024"	"2"	"48000"	"-16"	"experiment"	"82"	"even"	"legacy"	"[target1]"	"absent"	"present"	"2451"	NA	NA	"2451"	NA	NA	"37892"	NA	NA	NA	NA	NA	"2385"	"2444"	"2448"	"31524"	NA	NA	"2850"	"2508"	"2486"	"2508"	"2850"	"37892"	NA	"2448"	"2451"	NA	NA	NA	NA	"2387"	"2385"	"2387"	"7832"	"lineup1"	"no"	"1"	"no"	"1366"
"25"	""	"white"	"no"	"xpyriment"	"legacy"	"legacy"	"0"	"no"	"relative"	"0"	"0"	"0"	"0"	"0"	"1"	"1"	"0"	"0"	"0"	"1"	"0"	"0"	"0"	"0"	"1"	"0"	"0"	"1"	"0"	"0"	"0"	"1"	"5"	"0"	"0"	"0"	"0"	"0"	"0"	"0"	"0"	"0"	"0"	"1"	"02/21/18 14:48:02"	"Executes Python code"	"yes"	""	"lineup_videoVIPER_W.osexp"	"C:/Users/standalone/Desktop/Wednesday 2102"	"no"	"mono"	"no"	"24"	"no"	"black"	"no"	"yes"	"male"	"768"	"No"	"no"	"no"	"no"	"legacy"	"1"	"0"	"C:/Users/standalone/Desktop/Wednesday 2102/subject-82.csv"	"[member2]"	"3"	"1"	"7"	"5"	"4"	"2"	"xpyriment"	"Jazzy James"	"3.1.6"	"0"	"2"	"legacy"	"1024"	"2"	"48000"	"-16"	"experiment"	"82"	"even"	"legacy"	"[target1]"	"absent"	"present"	"2451"	NA	NA	"2451"	NA	NA	"49588"	NA	NA	NA	NA	NA	"2385"	"2444"	"2448"	"47017"	NA	NA	"2850"	"2508"	"2486"	"2508"	"38125"	"49589"	NA	"2448"	"2451"	NA	NA	NA	NA	"2387"	"2385"	"2387"	"38125"	"lineup1"	"no"	"2"	"no"	"1366"
"26"	""	"white"	"no"	"xpyriment"	"legacy"	"legacy"	"0"	"no"	"relative"	"0"	"0"	"0"	"0"	"0"	"2"	"2"	"0"	"0"	"0"	"2"	"0"	"0"	"0"	"0"	"2"	"0"	"0"	"2"	"0"	"0"	"0"	"2"	"6"	"0"	"0"	"0"	"0"	"0"	"0"	"0"	"0"	"0"	"0"	"2"	"02/21/18 14:48:02"	"Executes Python code"	"yes"	""	"lineup_videoVIPER_W.osexp"	"C:/Users/standalone/Desktop/Wednesday 2102"	"no"	"mono"	"no"	"24"	"no"	"black"	"no"	"yes"	"male"	"768"	"No"	"no"	"no"	"no"	"legacy"	"2"	"0"	"C:/Users/standalone/Desktop/Wednesday 2102/subject-82.csv"	"[member3]"	"3"	"1"	"7"	"5"	"4"	"2"	"xpyriment"	"Jazzy James"	"3.1.6"	"0"	"2"	"legacy"	"1024"	"2"	"48000"	"-16"	"experiment"	"82"	"even"	"legacy"	"[target1]"	"absent"	"present"	"2451"	NA	NA	"2451"	NA	NA	"60039"	NA	NA	NA	NA	NA	"2385"	"2444"	"2448"	"56899"	NA	NA	"2850"	"2508"	"2486"	"2508"	"49821"	"60039"	NA	"2448"	"2451"	NA	NA	NA	NA	"2387"	"2385"	"2387"	"49822"	"lineup1"	"no"	"3"	"no"	"1366"
"27"	""	"white"	"no"	"xpyriment"	"legacy"	"legacy"	"0"	"no"	"relative"	"0"	"0"	"0"	"0"	"0"	"3"	"3"	"0"	"0"	"0"	"3"	"0"	"0"	"0"	"0"	"3"	"0"	"0"	"3"	"0"	"0"	"0"	"3"	"7"	"0"	"0"	"0"	"0"	"0"	"0"	"0"	"0"	"0"	"0"	"3"	"02/21/18 14:48:02"	"Executes Python code"	"yes"	""	"lineup_videoVIPER_W.osexp"	"C:/Users/standalone/Desktop/Wednesday 2102"	"no"	"mono"	"no"	"24"	"no"	"black"	"no"	"yes"	"male"	"768"	"Not sure"	"no"	"no"	"no"	"legacy"	"3"	"0"	"C:/Users/standalone/Desktop/Wednesday 2102/subject-82.csv"	"[member4]"	"3"	"1"	"7"	"5"	"4"	"2"	"xpyriment"	"Jazzy James"	"3.1.6"	"0"	"2"	"legacy"	"1024"	"2"	"48000"	"-16"	"experiment"	"82"	"even"	"legacy"	"[target1]"	"absent"	"present"	"2451"	NA	NA	"2451"	NA	NA	"79484"	NA	NA	NA	NA	NA	"2385"	"2444"	"2448"	"75218"	NA	NA	"2850"	"2508"	"2486"	"2508"	"60278"	"79484"	NA	"2448"	"2451"	NA	NA	NA	NA	"2387"	"2385"	"2387"	"60278"	"lineup1"	"no"	"4"	"no"	"1366"
"28"	""	"white"	"no"	"xpyriment"	"legacy"	"legacy"	"0"	"no"	"relative"	"0"	"0"	"0"	"0"	"0"	"4"	"4"	"0"	"0"	"0"	"4"	"0"	"0"	"0"	"0"	"4"	"0"	"0"	"4"	"0"	"0"	"0"	"4"	"8"	"0"	"0"	"0"	"0"	"0"	"0"	"0"	"0"	"0"	"0"	"4"	"02/21/18 14:48:02"	"Executes Python code"	"yes"	""	"lineup_videoVIPER_W.osexp"	"C:/Users/standalone/Desktop/Wednesday 2102"	"no"	"mono"	"no"	"24"	"no"	"black"	"no"	"yes"	"male"	"768"	"No"	"no"	"no"	"no"	"legacy"	"4"	"0"	"C:/Users/standalone/Desktop/Wednesday 2102/subject-82.csv"	"[member5]"	"3"	"1"	"7"	"5"	"4"	"2"	"xpyriment"	"Jazzy James"	"3.1.6"	"0"	"2"	"legacy"	"1024"	"2"	"48000"	"-16"	"experiment"	"82"	"even"	"legacy"	"[target1]"	"absent"	"present"	"2451"	NA	NA	"2451"	NA	NA	"84421"	NA	NA	NA	NA	NA	"2385"	"2444"	"2448"	"81593"	NA	NA	"2850"	"2508"	"2486"	"2508"	"79724"	"84421"	NA	"2448"	"2451"	NA	NA	NA	NA	"2387"	"2385"	"2387"	"79724"	"lineup1"	"no"	"5"	"no"	"1366"
"29"	""	"white"	"no"	"xpyriment"	"legacy"	"legacy"	"0"	"no"	"relative"	"0"	"0"	"0"	"0"	"0"	"5"	"5"	"0"	"0"	"0"	"5"	"0"	"0"	"0"	"0"	"5"	"0"	"0"	"5"	"0"	"0"	"0"	"5"	"9"	"0"	"0"	"0"	"0"	"0"	"0"	"0"	"0"	"0"	"0"	"5"	"02/21/18 14:48:02"	"Executes Python code"	"yes"	""	"lineup_videoVIPER_W.osexp"	"C:/Users/standalone/Desktop/Wednesday 2102"	"no"	"mono"	"no"	"24"	"no"	"black"	"no"	"yes"	"male"	"768"	"No"	"no"	"no"	"no"	"legacy"	"5"	"0"	"C:/Users/standalone/Desktop/Wednesday 2102/subject-82.csv"	"[member6]"	"3"	"1"	"7"	"5"	"4"	"2"	"xpyriment"	"Jazzy James"	"3.1.6"	"0"	"2"	"legacy"	"1024"	"2"	"48000"	"-16"	"experiment"	"82"	"even"	"legacy"	"[target1]"	"absent"	"present"	"2451"	NA	NA	"2451"	NA	NA	"88704"	NA	NA	NA	NA	NA	"2385"	"2444"	"2448"	"85892"	NA	NA	"2850"	"2508"	"2486"	"2508"	"84646"	"88705"	NA	"2448"	"2451"	NA	NA	NA	NA	"2387"	"2385"	"2387"	"84646"	"lineup1"	"no"	"6"	"no"	"1366"
"30"	""	"white"	"no"	"xpyriment"	"legacy"	"legacy"	"0"	"no"	"relative"	"0"	"0"	"0"	"0"	"0"	"5"	"5"	"0"	"0"	"0"	"5"	"0"	"0"	"0"	"0"	"5"	"0"	"0"	"5"	"0"	"0"	"0"	"5"	"9"	"0"	"0"	"0"	"0"	"0"	"0"	"0"	"0"	"0"	"0"	"5"	"02/21/18 14:48:02"	"Executes Python code"	"yes"	""	"lineup_videoVIPER_W.osexp"	"C:/Users/standalone/Desktop/Wednesday 2102"	"no"	"mono"	"no"	"24"	"no"	"black"	"no"	"yes"	"male"	"768"	"No"	"No"	"no"	"No"	"legacy"	"5"	"0"	"C:/Users/standalone/Desktop/Wednesday 2102/subject-82.csv"	"[member6]"	"3"	"1"	"7"	"5"	"4"	"2"	"xpyriment"	"Jazzy James"	"3.1.6"	"0"	"2"	"legacy"	"1024"	"2"	"48000"	"-16"	"experiment"	"82"	"even"	"legacy"	"[target1]"	"absent"	"present"	"2451"	NA	"105454"	"2451"	NA	NA	"88704"	"105453"	NA	"115934"	NA	NA	"2385"	"2444"	"2448"	"85892"	NA	NA	"2850"	"2508"	"2486"	"2508"	"84646"	"115934"	"88742"	"2448"	"2451"	NA	"108777"	NA	NA	"2387"	"2385"	"2387"	"84646"	"lineup1"	"no"	"6"	"no"	"1366"
"31"	""	"white"	"no"	"xpyriment"	"legacy"	"legacy"	"0"	"no"	"relative"	"1"	"1"	"0"	"1"	"1"	"5"	"5"	"0"	"0"	"0"	"5"	"0"	"0"	"0"	"1"	"5"	"0"	"0"	"5"	"0"	"1"	"0"	"5"	"10"	"0"	"1"	"1"	"0"	"0"	"0"	"0"	"0"	"0"	"0"	"5"	"02/21/18 14:48:02"	"Executes Python code"	"yes"	""	"lineup_videoVIPER_W.osexp"	"C:/Users/standalone/Desktop/Wednesday 2102"	"no"	"mono"	"no"	"24"	"no"	"black"	"no"	"yes"	"female"	"768"	"No"	"No"	"no"	"No"	"legacy"	"0"	"0"	"C:/Users/standalone/Desktop/Wednesday 2102/subject-82.csv"	"[member6]"	"3"	"1"	"5"	"4"	"2"	"6"	"xpyriment"	"Jazzy James"	"3.1.6"	"0"	"2"	"legacy"	"1024"	"2"	"48000"	"-16"	"experiment"	"82"	"even"	"legacy"	"[target2]"	"absent"	"present"	"2451"	"115997"	"105454"	"2451"	"115997"	NA	"88704"	"105453"	NA	"115934"	NA	NA	"2385"	"2444"	"115994"	"85892"	NA	NA	"2850"	"2508"	"2486"	"2508"	"84646"	"115997"	"88742"	"115994"	"115997"	NA	"108777"	NA	NA	"2387"	"2385"	"2387"	"84646"	"lineup1"	"no"	"6"	"no"	"1366"
"32"	""	"white"	"no"	"xpyriment"	"legacy"	"legacy"	"0"	"no"	"relative"	"1"	"1"	"1"	"1"	"1"	"6"	"6"	"1"	"1"	"1"	"6"	"0"	"0"	"0"	"1"	"6"	"1"	"1"	"6"	"1"	"1"	"1"	"6"	"12"	"1"	"1"	"1"	"1"	"1"	"1"	"1"	"0"	"0"	"0"	"6"	"02/21/18 14:48:02"	"Executes Python code"	"yes"	""	"lineup_videoVIPER_W.osexp"	"C:/Users/standalone/Desktop/Wednesday 2102"	"no"	"mono"	"no"	"24"	"no"	"black"	"no"	"yes"	"female"	"768"	"No"	"no"	"no"	"no"	"legacy"	"0"	"0"	"C:/Users/standalone/Desktop/Wednesday 2102/subject-82.csv"	"[member1]"	"3"	"1"	"5"	"4"	"2"	"6"	"xpyriment"	"Jazzy James"	"3.1.6"	"0"	"2"	"legacy"	"1024"	"2"	"48000"	"-16"	"experiment"	"82"	"even"	"legacy"	"[target2]"	"absent"	"present"	"2451"	"115997"	"105454"	"2451"	"115997"	NA	"129350"	"105453"	NA	"115934"	NA	NA	"2385"	"2444"	"115994"	"125842"	NA	NA	"116247"	"116057"	"116031"	"116057"	"116247"	"129350"	"88742"	"115994"	"115997"	NA	"108777"	NA	NA	"2387"	"2385"	"2387"	"121143"	"lineup1"	"no"	"1"	"no"	"1366"
"33"	""	"white"	"no"	"xpyriment"	"legacy"	"legacy"	"0"	"60"	"relative"	"1"	"1"	"1"	"1"	"1"	"7"	"7"	"1"	"1"	"1"	"7"	"0"	"0"	"0"	"1"	"7"	"1"	"1"	"7"	"1"	"1"	"1"	"7"	"13"	"1"	"1"	"1"	"1"	"1"	"1"	"1"	"0"	"0"	"0"	"7"	"02/21/18 14:48:02"	"Executes Python code"	"yes"	""	"lineup_videoVIPER_W.osexp"	"C:/Users/standalone/Desktop/Wednesday 2102"	"no"	"mono"	"no"	"24"	"no"	"black"	"no"	"yes"	"female"	"768"	"Yes"	"no"	"no"	"no"	"legacy"	"1"	"0"	"C:/Users/standalone/Desktop/Wednesday 2102/subject-82.csv"	"[member2]"	"3"	"1"	"5"	"4"	"2"	"6"	"xpyriment"	"Jazzy James"	"3.1.6"	"0"	"2"	"legacy"	"1024"	"2"	"48000"	"-16"	"experiment"	"82"	"even"	"legacy"	"[target2]"	"absent"	"present"	"2451"	"115997"	"105454"	"2451"	"115997"	"155304"	"143775"	"105453"	NA	"115934"	"143775"	NA	"2385"	"2444"	"115994"	"137787"	NA	NA	"116247"	"116057"	"116031"	"116057"	"129595"	"155305"	"88742"	"115994"	"115997"	NA	"108777"	NA	NA	"2387"	"2385"	"2387"	"129595"	"lineup1"	"no"	"2"	"no"	"1366"
"34"	""	"white"	"no"	"xpyriment"	"legacy"	"legacy"	"0"	"no"	"relative"	"1"	"1"	"1"	"1"	"1"	"8"	"8"	"1"	"1"	"1"	"8"	"0"	"0"	"0"	"1"	"8"	"1"	"1"	"8"	"1"	"1"	"1"	"8"	"14"	"1"	"1"	"1"	"1"	"1"	"1"	"1"	"0"	"0"	"0"	"8"	"02/21/18 14:48:02"	"Executes Python code"	"yes"	""	"lineup_videoVIPER_W.osexp"	"C:/Users/standalone/Desktop/Wednesday 2102"	"no"	"mono"	"no"	"24"	"no"	"black"	"no"	"yes"	"female"	"768"	"No"	"no"	"no"	"no"	"legacy"	"2"	"0"	"C:/Users/standalone/Desktop/Wednesday 2102/subject-82.csv"	"[member3]"	"3"	"1"	"5"	"4"	"2"	"6"	"xpyriment"	"Jazzy James"	"3.1.6"	"0"	"2"	"legacy"	"1024"	"2"	"48000"	"-16"	"experiment"	"82"	"even"	"legacy"	"[target2]"	"absent"	"present"	"2451"	"115997"	"105454"	"2451"	"115997"	"155304"	"166146"	"105453"	NA	"115934"	"143775"	NA	"2385"	"2444"	"115994"	"163777"	NA	NA	"116247"	"116057"	"116031"	"116057"	"155570"	"166146"	"88742"	"115994"	"115997"	NA	"108777"	NA	NA	"2387"	"2385"	"2387"	"155570"	"lineup1"	"no"	"3"	"no"	"1366"
"35"	""	"white"	"no"	"xpyriment"	"legacy"	"legacy"	"0"	"no"	"relative"	"1"	"1"	"1"	"1"	"1"	"9"	"9"	"1"	"1"	"1"	"9"	"0"	"0"	"0"	"1"	"9"	"1"	"1"	"9"	"1"	"1"	"1"	"9"	"15"	"1"	"1"	"1"	"1"	"1"	"1"	"1"	"0"	"0"	"0"	"9"	"02/21/18 14:48:02"	"Executes Python code"	"yes"	""	"lineup_videoVIPER_W.osexp"	"C:/Users/standalone/Desktop/Wednesday 2102"	"no"	"mono"	"no"	"24"	"no"	"black"	"no"	"yes"	"female"	"768"	"No"	"no"	"no"	"no"	"legacy"	"3"	"0"	"C:/Users/standalone/Desktop/Wednesday 2102/subject-82.csv"	"[member4]"	"3"	"1"	"5"	"4"	"2"	"6"	"xpyriment"	"Jazzy James"	"3.1.6"	"0"	"2"	"legacy"	"1024"	"2"	"48000"	"-16"	"experiment"	"82"	"even"	"legacy"	"[target2]"	"absent"	"present"	"2451"	"115997"	"105454"	"2451"	"115997"	"155304"	"171921"	"105453"	NA	"115934"	"143775"	NA	"2385"	"2444"	"115994"	"169629"	NA	NA	"116247"	"116057"	"116031"	"116057"	"166388"	"171921"	"88742"	"115994"	"115997"	NA	"108777"	NA	NA	"2387"	"2385"	"2387"	"166388"	"lineup1"	"no"	"4"	"no"	"1366"
"36"	""	"white"	"no"	"xpyriment"	"legacy"	"legacy"	"0"	"no"	"relative"	"1"	"1"	"1"	"1"	"1"	"10"	"10"	"1"	"1"	"1"	"10"	"0"	"0"	"0"	"1"	"10"	"1"	"1"	"10"	"1"	"1"	"1"	"10"	"16"	"1"	"1"	"1"	"1"	"1"	"1"	"1"	"0"	"0"	"0"	"10"	"02/21/18 14:48:02"	"Executes Python code"	"yes"	""	"lineup_videoVIPER_W.osexp"	"C:/Users/standalone/Desktop/Wednesday 2102"	"no"	"mono"	"no"	"24"	"no"	"black"	"no"	"yes"	"female"	"768"	"No"	"no"	"no"	"no"	"legacy"	"4"	"0"	"C:/Users/standalone/Desktop/Wednesday 2102/subject-82.csv"	"[member5]"	"3"	"1"	"5"	"4"	"2"	"6"	"xpyriment"	"Jazzy James"	"3.1.6"	"0"	"2"	"legacy"	"1024"	"2"	"48000"	"-16"	"experiment"	"82"	"even"	"legacy"	"[target2]"	"absent"	"present"	"2451"	"115997"	"105454"	"2451"	"115997"	"155304"	"183790"	"105453"	NA	"115934"	"143775"	NA	"2385"	"2444"	"115994"	"181420"	NA	NA	"116247"	"116057"	"116031"	"116057"	"172162"	"183790"	"88742"	"115994"	"115997"	NA	"108777"	NA	NA	"2387"	"2385"	"2387"	"172162"	"lineup1"	"no"	"5"	"no"	"1366"
"37"	""	"white"	"no"	"xpyriment"	"legacy"	"legacy"	"0"	"no"	"relative"	"1"	"1"	"1"	"1"	"1"	"11"	"11"	"1"	"1"	"1"	"11"	"0"	"0"	"0"	"1"	"11"	"1"	"1"	"11"	"1"	"1"	"1"	"11"	"17"	"1"	"1"	"1"	"1"	"1"	"1"	"1"	"0"	"0"	"0"	"11"	"02/21/18 14:48:02"	"Executes Python code"	"yes"	""	"lineup_videoVIPER_W.osexp"	"C:/Users/standalone/Desktop/Wednesday 2102"	"no"	"mono"	"no"	"24"	"no"	"black"	"no"	"yes"	"female"	"768"	"No"	"no"	"no"	"no"	"legacy"	"5"	"0"	"C:/Users/standalone/Desktop/Wednesday 2102/subject-82.csv"	"[member6]"	"3"	"1"	"5"	"4"	"2"	"6"	"xpyriment"	"Jazzy James"	"3.1.6"	"0"	"2"	"legacy"	"1024"	"2"	"48000"	"-16"	"experiment"	"82"	"even"	"legacy"	"[target2]"	"absent"	"present"	"2451"	"115997"	"105454"	"2451"	"115997"	"155304"	"197476"	"105453"	NA	"115934"	"143775"	NA	"2385"	"2444"	"115994"	"193388"	NA	NA	"116247"	"116057"	"116031"	"116057"	"184018"	"197476"	"88742"	"115994"	"115997"	NA	"108777"	NA	NA	"2387"	"2385"	"2387"	"184019"	"lineup1"	"no"	"6"	"no"	"1366"
"38"	""	"white"	"no"	"xpyriment"	"legacy"	"legacy"	"0"	"no"	"relative"	"1"	"1"	"1"	"1"	"1"	"11"	"11"	"1"	"1"	"1"	"11"	"0"	"0"	"0"	"1"	"11"	"1"	"1"	"11"	"1"	"1"	"1"	"11"	"17"	"1"	"1"	"1"	"1"	"1"	"1"	"1"	"0"	"0"	"0"	"11"	"02/21/18 14:48:02"	"Executes Python code"	"yes"	""	"lineup_videoVIPER_W.osexp"	"C:/Users/standalone/Desktop/Wednesday 2102"	"no"	"mono"	"no"	"24"	"no"	"black"	"no"	"yes"	"female"	"768"	"No"	"Yes"	"One"	"No"	"legacy"	"5"	"0"	"C:/Users/standalone/Desktop/Wednesday 2102/subject-82.csv"	"[member6]"	"3"	"1"	"5"	"4"	"2"	"6"	"xpyriment"	"Jazzy James"	"3.1.6"	"0"	"2"	"legacy"	"1024"	"2"	"48000"	"-16"	"experiment"	"82"	"even"	"legacy"	"[target2]"	"absent"	"present"	"2451"	"115997"	"205152"	"2451"	"115997"	"155304"	"197476"	"201020"	"205152"	"211452"	"143775"	NA	"2385"	"2444"	"115994"	"193388"	NA	NA	"116247"	"116057"	"116031"	"116057"	"184018"	"211452"	"197519"	"115994"	"115997"	"201020"	"209270"	NA	NA	"2387"	"2385"	"2387"	"184019"	"lineup1"	"no"	"6"	"no"	"1366"
"39"	""	"white"	"no"	"xpyriment"	"legacy"	"legacy"	"0"	"no"	"relative"	"1"	"1"	"1"	"1"	"1"	"11"	"11"	"1"	"1"	"1"	"11"	"0"	"0"	"0"	"1"	"11"	"1"	"1"	"11"	"1"	"1"	"1"	"11"	"17"	"1"	"1"	"1"	"1"	"1"	"1"	"1"	"0"	"0"	"0"	"11"	"02/21/18 14:48:02"	"Executes Python code"	"yes"	""	"lineup_videoVIPER_W.osexp"	"C:/Users/standalone/Desktop/Wednesday 2102"	"no"	"mono"	"no"	"24"	"no"	"black"	"no"	"yes"	"female"	"768"	"No"	"Yes"	"One"	"No"	"legacy"	"5"	"0"	"C:/Users/standalone/Desktop/Wednesday 2102/subject-82.csv"	"[member6]"	"3"	"1"	"5"	"4"	"2"	"6"	"xpyriment"	"Jazzy James"	"3.1.6"	"0"	"2"	"legacy"	"1024"	"2"	"48000"	"-16"	"experiment"	"82"	"even"	"legacy"	"[target2]"	"absent"	"present"	"2451"	"115997"	"205152"	"2451"	"115997"	"155304"	"197476"	"201020"	"205152"	"211452"	"143775"	"211520"	"2385"	"2444"	"115994"	"193388"	NA	NA	"116247"	"116057"	"116031"	"116057"	"184018"	"212646"	"197519"	"115994"	"115997"	"201020"	"209270"	NA	NA	"2387"	"2385"	"2387"	"184019"	"lineup1"	"no"	"6"	"no"	"1366"
"40"	""	"white"	"no"	"xpyriment"	"legacy"	"legacy"	"0"	NA	"relative"	NA	NA	NA	NA	NA	NA	NA	NA	NA	NA	NA	"0"	"0"	"0"	NA	NA	NA	NA	NA	NA	NA	NA	NA	"1"	NA	NA	NA	NA	NA	NA	NA	"0"	"0"	"0"	NA	"02/21/18 14:51:03"	"Executes Python code"	"yes"	""	"lineup_videoVIPER_W.osexp"	"C:/Users/standalone/Desktop/Wed 21-02"	"no"	"mono"	"no"	"24"	"no"	"black"	"no"	"yes"	NA	"768"	NA	NA	NA	NA	"legacy"	"0"	"0"	"C:/Users/standalone/Desktop/Wed 21-02/subject-83.csv"	NA	NA	NA	NA	NA	NA	NA	"xpyriment"	"Jazzy James"	"3.1.6"	"0"	"2"	"legacy"	"1024"	"2"	"48000"	"-16"	"experiment"	"83"	"odd"	"legacy"	NA	"present"	"absent"	NA	NA	NA	NA	NA	NA	NA	NA	NA	NA	NA	NA	"2554"	NA	NA	NA	NA	NA	NA	NA	NA	NA	NA	"2555"	NA	NA	NA	NA	NA	NA	NA	"2555"	"2554"	"2555"	NA	"lineup1"	"no"	NA	"no"	"1366"
"41"	""	"white"	"no"	"xpyriment"	"legacy"	"legacy"	"0"	NA	"relative"	"0"	"0"	NA	"0"	"0"	NA	NA	NA	NA	NA	NA	"0"	"0"	"0"	"0"	NA	NA	NA	NA	NA	"0"	NA	NA	"2"	NA	"0"	"0"	NA	NA	NA	NA	"0"	"0"	"0"	NA	"02/21/18 14:51:03"	"Executes Python code"	"yes"	""	"lineup_videoVIPER_W.osexp"	"C:/Users/standalone/Desktop/Wed 21-02"	"no"	"mono"	"no"	"24"	"no"	"black"	"no"	"yes"	"female"	"768"	NA	NA	NA	NA	"legacy"	"0"	"0"	"C:/Users/standalone/Desktop/Wed 21-02/subject-83.csv"	NA	"4"	"1"	"5"	"2"	"7"	"3"	"xpyriment"	"Jazzy James"	"3.1.6"	"0"	"2"	"legacy"	"1024"	"2"	"48000"	"-16"	"experiment"	"83"	"odd"	"legacy"	"[target2]"	"present"	"absent"	"2621"	NA	NA	"2621"	NA	NA	NA	NA	NA	NA	NA	NA	"2554"	"2615"	"2619"	NA	NA	NA	NA	NA	NA	NA	NA	"2621"	NA	"2619"	"2621"	NA	NA	NA	NA	"2555"	"2554"	"2555"	NA	"lineup1"	"no"	NA	"no"	"1366"
"42"	""	"white"	"no"	"xpyriment"	"legacy"	"legacy"	"0"	"no"	"relative"	"0"	"0"	"0"	"0"	"0"	"0"	"0"	"0"	"0"	"0"	"0"	"0"	"0"	"0"	"0"	"0"	"0"	"0"	"0"	"0"	"0"	"0"	"0"	"4"	"0"	"0"	"0"	"0"	"0"	"0"	"0"	"0"	"0"	"0"	"0"	"02/21/18 14:51:03"	"Executes Python code"	"yes"	""	"lineup_videoVIPER_W.osexp"	"C:/Users/standalone/Desktop/Wed 21-02"	"no"	"mono"	"no"	"24"	"no"	"black"	"no"	"yes"	"female"	"768"	"No"	"no"	"no"	"no"	"legacy"	"0"	"0"	"C:/Users/standalone/Desktop/Wed 21-02/subject-83.csv"	"[member1]"	"4"	"1"	"5"	"2"	"7"	"3"	"xpyriment"	"Jazzy James"	"3.1.6"	"0"	"2"	"legacy"	"1024"	"2"	"48000"	"-16"	"experiment"	"83"	"odd"	"legacy"	"[target2]"	"present"	"absent"	"2621"	NA	NA	"2621"	NA	NA	"56541"	NA	NA	NA	NA	NA	"2554"	"2615"	"2619"	"48531"	NA	NA	"3072"	"2687"	"2659"	"2687"	"3072"	"56541"	NA	"2619"	"2621"	NA	NA	NA	NA	"2555"	"2554"	"2555"	"34368"	"lineup1"	"no"	"1"	"no"	"1366"
"43"	""	"white"	"no"	"xpyriment"	"legacy"	"legacy"	"0"	"no"	"relative"	"0"	"0"	"0"	"0"	"0"	"1"	"1"	"0"	"0"	"0"	"1"	"0"	"0"	"0"	"0"	"2"	"0"	"0"	"1"	"0"	"0"	"0"	"1"	"5"	"0"	"0"	"0"	"0"	"0"	"0"	"0"	"0"	"0"	"0"	"1"	"02/21/18 14:51:03"	"Executes Python code"	"yes"	""	"lineup_videoVIPER_W.osexp"	"C:/Users/standalone/Desktop/Wed 21-02"	"no"	"mono"	"no"	"24"	"no"	"black"	"no"	"yes"	"female"	"768"	"No"	"no"	"no"	"no"	"legacy"	"1"	"0"	"C:/Users/standalone/Desktop/Wed 21-02/subject-83.csv"	"[member2]"	"4"	"1"	"5"	"2"	"7"	"3"	"xpyriment"	"Jazzy James"	"3.1.6"	"0"	"2"	"legacy"	"1024"	"2"	"48000"	"-16"	"experiment"	"83"	"odd"	"legacy"	"[target2]"	"present"	"absent"	"2621"	NA	NA	"2621"	NA	NA	"66312"	NA	NA	NA	NA	NA	"2554"	"2615"	"2619"	"66318"	NA	NA	"3072"	"2687"	"2659"	"2687"	"56816"	"68556"	NA	"2619"	"2621"	NA	NA	NA	NA	"2555"	"2554"	"2555"	"56817"	"lineup1"	"no"	"2"	"no"	"1366"
"44"	""	"white"	"no"	"xpyriment"	"legacy"	"legacy"	"0"	"40"	"relative"	"0"	"0"	"0"	"0"	"0"	"2"	"2"	"0"	"0"	"0"	"2"	"0"	"0"	"0"	"0"	"3"	"0"	"0"	"2"	"0"	"0"	"0"	"2"	"6"	"0"	"0"	"0"	"0"	"0"	"0"	"0"	"0"	"0"	"0"	"2"	"02/21/18 14:51:03"	"Executes Python code"	"yes"	""	"lineup_videoVIPER_W.osexp"	"C:/Users/standalone/Desktop/Wed 21-02"	"no"	"mono"	"no"	"24"	"no"	"black"	"no"	"yes"	"female"	"768"	"Yes"	"no"	"no"	"no"	"legacy"	"2"	"0"	"C:/Users/standalone/Desktop/Wed 21-02/subject-83.csv"	"[member3]"	"4"	"1"	"5"	"2"	"7"	"3"	"xpyriment"	"Jazzy James"	"3.1.6"	"0"	"2"	"legacy"	"1024"	"2"	"48000"	"-16"	"experiment"	"83"	"odd"	"legacy"	"[target2]"	"present"	"absent"	"2621"	NA	NA	"2621"	NA	"91162"	"85761"	NA	NA	NA	"85761"	NA	"2554"	"2615"	"2619"	"81146"	NA	NA	"3072"	"2687"	"2659"	"2687"	"68883"	"91162"	NA	"2619"	"2621"	NA	NA	NA	NA	"2555"	"2554"	"2555"	"68883"	"lineup1"	"no"	"3"	"no"	"1366"
"45"	""	"white"	"no"	"xpyriment"	"legacy"	"legacy"	"0"	"80"	"relative"	"0"	"0"	"0"	"0"	"0"	"3"	"3"	"0"	"0"	"0"	"3"	"0"	"0"	"0"	"0"	"4"	"0"	"0"	"3"	"0"	"0"	"0"	"3"	"7"	"0"	"0"	"0"	"0"	"0"	"0"	"0"	"0"	"0"	"0"	"3"	"02/21/18 14:51:03"	"Executes Python code"	"yes"	""	"lineup_videoVIPER_W.osexp"	"C:/Users/standalone/Desktop/Wed 21-02"	"no"	"mono"	"no"	"24"	"no"	"black"	"no"	"yes"	"female"	"768"	"Yes"	"no"	"no"	"no"	"legacy"	"3"	"0"	"C:/Users/standalone/Desktop/Wed 21-02/subject-83.csv"	"[member4]"	"4"	"1"	"5"	"2"	"7"	"3"	"xpyriment"	"Jazzy James"	"3.1.6"	"0"	"2"	"legacy"	"1024"	"2"	"48000"	"-16"	"experiment"	"83"	"odd"	"legacy"	"[target2]"	"present"	"absent"	"2621"	NA	NA	"2621"	NA	"102965"	"98915"	NA	NA	NA	"98915"	NA	"2554"	"2615"	"2619"	"96648"	NA	NA	"3072"	"2687"	"2659"	"2687"	"91439"	"102965"	NA	"2619"	"2621"	NA	NA	NA	NA	"2555"	"2554"	"2555"	"91439"	"lineup1"	"no"	"4"	"no"	"1366"
"46"	""	"white"	"no"	"xpyriment"	"legacy"	"legacy"	"0"	"no"	"relative"	"0"	"0"	"0"	"0"	"0"	"4"	"4"	"0"	"0"	"0"	"4"	"0"	"0"	"0"	"0"	"5"	"0"	"0"	"4"	"0"	"0"	"0"	"4"	"8"	"0"	"0"	"0"	"0"	"0"	"0"	"0"	"0"	"0"	"0"	"4"	"02/21/18 14:51:03"	"Executes Python code"	"yes"	""	"lineup_videoVIPER_W.osexp"	"C:/Users/standalone/Desktop/Wed 21-02"	"no"	"mono"	"no"	"24"	"no"	"black"	"no"	"yes"	"female"	"768"	"No"	"no"	"no"	"no"	"legacy"	"4"	"0"	"C:/Users/standalone/Desktop/Wed 21-02/subject-83.csv"	"[member5]"	"4"	"1"	"5"	"2"	"7"	"3"	"xpyriment"	"Jazzy James"	"3.1.6"	"0"	"2"	"legacy"	"1024"	"2"	"48000"	"-16"	"experiment"	"83"	"odd"	"legacy"	"[target2]"	"present"	"absent"	"2621"	NA	NA	"2621"	NA	"102965"	"106958"	NA	NA	NA	"98915"	NA	"2554"	"2615"	"2619"	"104594"	NA	NA	"3072"	"2687"	"2659"	"2687"	"103229"	"106959"	NA	"2619"	"2621"	NA	NA	NA	NA	"2555"	"2554"	"2555"	"103229"	"lineup1"	"no"	"5"	"no"	"1366"
"47"	""	"white"	"no"	"xpyriment"	"legacy"	"legacy"	"0"	"no"	"relative"	"0"	"0"	"0"	"0"	"0"	"5"	"5"	"0"	"0"	"0"	"5"	"0"	"0"	"0"	"0"	"6"	"0"	"0"	"5"	"0"	"0"	"0"	"5"	"9"	"0"	"0"	"0"	"0"	"0"	"0"	"0"	"0"	"0"	"0"	"5"	"02/21/18 14:51:03"	"Executes Python code"	"yes"	""	"lineup_videoVIPER_W.osexp"	"C:/Users/standalone/Desktop/Wed 21-02"	"no"	"mono"	"no"	"24"	"no"	"black"	"no"	"yes"	"female"	"768"	"No"	"no"	"no"	"no"	"legacy"	"5"	"0"	"C:/Users/standalone/Desktop/Wed 21-02/subject-83.csv"	"[member6]"	"4"	"1"	"5"	"2"	"7"	"3"	"xpyriment"	"Jazzy James"	"3.1.6"	"0"	"2"	"legacy"	"1024"	"2"	"48000"	"-16"	"experiment"	"83"	"odd"	"legacy"	"[target2]"	"present"	"absent"	"2621"	NA	NA	"2621"	NA	"102965"	"116432"	NA	NA	NA	"98915"	NA	"2554"	"2615"	"2619"	"114555"	NA	NA	"3072"	"2687"	"2659"	"2687"	"107234"	"116432"	NA	"2619"	"2621"	NA	NA	NA	NA	"2555"	"2554"	"2555"	"107234"	"lineup1"	"no"	"6"	"no"	"1366"
"48"	""	"white"	"no"	"xpyriment"	"legacy"	"legacy"	"0"	"no"	"relative"	"0"	"0"	"1"	"0"	"0"	"6"	"6"	"1"	"1"	"1"	"6"	"0"	"0"	"0"	"0"	"7"	"1"	"1"	"6"	"1"	"0"	"1"	"6"	"11"	"1"	"0"	"0"	"1"	"1"	"1"	"1"	"0"	"0"	"0"	"6"	"02/21/18 14:51:03"	"Executes Python code"	"yes"	""	"lineup_videoVIPER_W.osexp"	"C:/Users/standalone/Desktop/Wed 21-02"	"no"	"mono"	"no"	"24"	"no"	"black"	"no"	"yes"	"female"	"768"	"No"	"no"	"no"	"no"	"legacy"	"0"	"0"	"C:/Users/standalone/Desktop/Wed 21-02/subject-83.csv"	"[member1]"	"4"	"1"	"5"	"2"	"7"	"3"	"xpyriment"	"Jazzy James"	"3.1.6"	"0"	"2"	"legacy"	"1024"	"2"	"48000"	"-16"	"experiment"	"83"	"odd"	"legacy"	"[target2]"	"present"	"absent"	"2621"	NA	NA	"2621"	NA	"102965"	"130813"	"119297"	"123037"	NA	"98915"	NA	"2554"	"2615"	"2619"	"129035"	"123037"	NA	"127076"	"126839"	"2659"	"126839"	"127076"	"130813"	"116473"	"2619"	"2621"	"119297"	NA	NA	"126812"	"2555"	"2554"	"2555"	"128314"	"lineup1"	"no"	"1"	"no"	"1366"
"49"	""	"white"	"no"	"xpyriment"	"legacy"	"legacy"	"0"	"no"	"relative"	"0"	"0"	"1"	"0"	"0"	"7"	"7"	"1"	"1"	"1"	"7"	"0"	"0"	"0"	"0"	"8"	"1"	"1"	"7"	"1"	"0"	"1"	"7"	"12"	"1"	"0"	"0"	"1"	"1"	"1"	"1"	"0"	"0"	"0"	"7"	"02/21/18 14:51:03"	"Executes Python code"	"yes"	""	"lineup_videoVIPER_W.osexp"	"C:/Users/standalone/Desktop/Wed 21-02"	"no"	"mono"	"no"	"24"	"no"	"black"	"no"	"yes"	"female"	"768"	"No"	"no"	"no"	"no"	"legacy"	"1"	"0"	"C:/Users/standalone/Desktop/Wed 21-02/subject-83.csv"	"[member2]"	"4"	"1"	"5"	"2"	"7"	"3"	"xpyriment"	"Jazzy James"	"3.1.6"	"0"	"2"	"legacy"	"1024"	"2"	"48000"	"-16"	"experiment"	"83"	"odd"	"legacy"	"[target2]"	"present"	"absent"	"2621"	NA	NA	"2621"	NA	"102965"	"135188"	"119297"	"123037"	NA	"98915"	NA	"2554"	"2615"	"2619"	"133186"	"123037"	NA	"127076"	"126839"	"2659"	"126839"	"131118"	"135188"	"116473"	"2619"	"2621"	"119297"	NA	NA	"126812"	"2555"	"2554"	"2555"	"131118"	"lineup1"	"no"	"2"	"no"	"1366"
"50"	""	"white"	"no"	"xpyriment"	"legacy"	"legacy"	"0"	"no"	"relative"	"0"	"0"	"1"	"0"	"0"	"8"	"8"	"1"	"1"	"1"	"8"	"0"	"0"	"0"	"0"	"9"	"1"	"1"	"8"	"1"	"0"	"1"	"8"	"13"	"1"	"0"	"0"	"1"	"1"	"1"	"1"	"0"	"0"	"0"	"8"	"02/21/18 14:51:03"	"Executes Python code"	"yes"	""	"lineup_videoVIPER_W.osexp"	"C:/Users/standalone/Desktop/Wed 21-02"	"no"	"mono"	"no"	"24"	"no"	"black"	"no"	"yes"	"female"	"768"	"No"	"no"	"no"	"no"	"legacy"	"2"	"0"	"C:/Users/standalone/Desktop/Wed 21-02/subject-83.csv"	"[member3]"	"4"	"1"	"5"	"2"	"7"	"3"	"xpyriment"	"Jazzy James"	"3.1.6"	"0"	"2"	"legacy"	"1024"	"2"	"48000"	"-16"	"experiment"	"83"	"odd"	"legacy"	"[target2]"	"present"	"absent"	"2621"	NA	NA	"2621"	NA	"102965"	"149624"	"119297"	"123037"	NA	"98915"	NA	"2554"	"2615"	"2619"	"147544"	"123037"	NA	"127076"	"126839"	"2659"	"126839"	"135477"	"149624"	"116473"	"2619"	"2621"	"119297"	NA	NA	"126812"	"2555"	"2554"	"2555"	"135477"	"lineup1"	"no"	"3"	"no"	"1366"
"51"	""	"white"	"no"	"xpyriment"	"legacy"	"legacy"	"0"	"60"	"relative"	"0"	"0"	"1"	"0"	"0"	"9"	"9"	"1"	"1"	"1"	"9"	"0"	"0"	"0"	"0"	"10"	"1"	"1"	"9"	"1"	"0"	"1"	"9"	"14"	"1"	"0"	"0"	"1"	"1"	"1"	"1"	"0"	"0"	"0"	"9"	"02/21/18 14:51:03"	"Executes Python code"	"yes"	""	"lineup_videoVIPER_W.osexp"	"C:/Users/standalone/Desktop/Wed 21-02"	"no"	"mono"	"no"	"24"	"no"	"black"	"no"	"yes"	"female"	"768"	"Yes"	"no"	"no"	"no"	"legacy"	"3"	"0"	"C:/Users/standalone/Desktop/Wed 21-02/subject-83.csv"	"[member4]"	"4"	"1"	"5"	"2"	"7"	"3"	"xpyriment"	"Jazzy James"	"3.1.6"	"0"	"2"	"legacy"	"1024"	"2"	"48000"	"-16"	"experiment"	"83"	"odd"	"legacy"	"[target2]"	"present"	"absent"	"2621"	NA	NA	"2621"	NA	"158962"	"153543"	"119297"	"123037"	NA	"153543"	NA	"2554"	"2615"	"2619"	"150583"	"123037"	NA	"127076"	"126839"	"2659"	"126839"	"149893"	"158963"	"116473"	"2619"	"2621"	"119297"	NA	NA	"126812"	"2555"	"2554"	"2555"	"149893"	"lineup1"	"no"	"4"	"no"	"1366"
"52"	""	"white"	"no"	"xpyriment"	"legacy"	"legacy"	"0"	"no"	"relative"	"0"	"0"	"1"	"0"	"0"	"10"	"10"	"1"	"1"	"1"	"10"	"0"	"0"	"0"	"0"	"11"	"1"	"1"	"10"	"1"	"0"	"1"	"10"	"15"	"1"	"0"	"0"	"1"	"1"	"1"	"1"	"0"	"0"	"0"	"10"	"02/21/18 14:51:03"	"Executes Python code"	"yes"	""	"lineup_videoVIPER_W.osexp"	"C:/Users/standalone/Desktop/Wed 21-02"	"no"	"mono"	"no"	"24"	"no"	"black"	"no"	"yes"	"female"	"768"	"No"	"no"	"no"	"no"	"legacy"	"4"	"0"	"C:/Users/standalone/Desktop/Wed 21-02/subject-83.csv"	"[member5]"	"4"	"1"	"5"	"2"	"7"	"3"	"xpyriment"	"Jazzy James"	"3.1.6"	"0"	"2"	"legacy"	"1024"	"2"	"48000"	"-16"	"experiment"	"83"	"odd"	"legacy"	"[target2]"	"present"	"absent"	"2621"	NA	NA	"2621"	NA	"158962"	"162092"	"119297"	"123037"	NA	"153543"	NA	"2554"	"2615"	"2619"	"160321"	"123037"	NA	"127076"	"126839"	"2659"	"126839"	"159230"	"162093"	"116473"	"2619"	"2621"	"119297"	NA	NA	"126812"	"2555"	"2554"	"2555"	"159230"	"lineup1"	"no"	"5"	"no"	"1366"
"53"	""	"white"	"no"	"xpyriment"	"legacy"	"legacy"	"0"	"no"	"relative"	"0"	"0"	"1"	"0"	"0"	"11"	"11"	"1"	"1"	"1"	"11"	"0"	"0"	"0"	"0"	"12"	"1"	"1"	"11"	"1"	"0"	"1"	"11"	"16"	"1"	"0"	"0"	"1"	"1"	"1"	"1"	"0"	"0"	"0"	"11"	"02/21/18 14:51:03"	"Executes Python code"	"yes"	""	"lineup_videoVIPER_W.osexp"	"C:/Users/standalone/Desktop/Wed 21-02"	"no"	"mono"	"no"	"24"	"no"	"black"	"no"	"yes"	"female"	"768"	"No"	"no"	"no"	"no"	"legacy"	"5"	"0"	"C:/Users/standalone/Desktop/Wed 21-02/subject-83.csv"	"[member6]"	"4"	"1"	"5"	"2"	"7"	"3"	"xpyriment"	"Jazzy James"	"3.1.6"	"0"	"2"	"legacy"	"1024"	"2"	"48000"	"-16"	"experiment"	"83"	"odd"	"legacy"	"[target2]"	"present"	"absent"	"2621"	NA	NA	"2621"	NA	"158962"	"165033"	"119297"	"123037"	NA	"153543"	NA	"2554"	"2615"	"2619"	"163055"	"123037"	NA	"127076"	"126839"	"2659"	"126839"	"162365"	"165033"	"116473"	"2619"	"2621"	"119297"	NA	NA	"126812"	"2555"	"2554"	"2555"	"162365"	"lineup1"	"no"	"6"	"no"	"1366"
"54"	""	"white"	"no"	"xpyriment"	"legacy"	"legacy"	"0"	"no"	"relative"	"0"	"0"	"1"	"0"	"0"	"11"	"11"	"1"	"1"	"1"	"11"	"0"	"0"	"0"	"0"	"12"	"1"	"1"	"11"	"1"	"0"	"1"	"11"	"16"	"1"	"0"	"0"	"1"	"1"	"1"	"1"	"0"	"0"	"0"	"11"	"02/21/18 14:51:03"	"Executes Python code"	"yes"	""	"lineup_videoVIPER_W.osexp"	"C:/Users/standalone/Desktop/Wed 21-02"	"no"	"mono"	"no"	"24"	"no"	"black"	"no"	"yes"	"female"	"768"	"No"	"Yes"	"One"	"No"	"legacy"	"5"	"0"	"C:/Users/standalone/Desktop/Wed 21-02/subject-83.csv"	"[member6]"	"4"	"1"	"5"	"2"	"7"	"3"	"xpyriment"	"Jazzy James"	"3.1.6"	"0"	"2"	"legacy"	"1024"	"2"	"48000"	"-16"	"experiment"	"83"	"odd"	"legacy"	"[target2]"	"present"	"absent"	"2621"	NA	"169110"	"2621"	NA	"158962"	"165033"	"167465"	"169110"	"176349"	"153543"	NA	"2554"	"2615"	"2619"	"163055"	"123037"	NA	"127076"	"126839"	"2659"	"126839"	"162365"	"176349"	"165078"	"2619"	"2621"	"167465"	"171602"	NA	"126812"	"2555"	"2554"	"2555"	"162365"	"lineup1"	"no"	"6"	"no"	"1366"
"55"	""	"white"	"no"	"xpyriment"	"legacy"	"legacy"	"0"	"no"	"relative"	"0"	"0"	"1"	"0"	"0"	"11"	"11"	"1"	"1"	"1"	"11"	"0"	"0"	"0"	"0"	"12"	"1"	"1"	"11"	"1"	"0"	"1"	"11"	"16"	"1"	"0"	"0"	"1"	"1"	"1"	"1"	"0"	"0"	"0"	"11"	"02/21/18 14:51:03"	"Executes Python code"	"yes"	""	"lineup_videoVIPER_W.osexp"	"C:/Users/standalone/Desktop/Wed 21-02"	"no"	"mono"	"no"	"24"	"no"	"black"	"no"	"yes"	"female"	"768"	"No"	"Yes"	"One"	"No"	"legacy"	"5"	"0"	"C:/Users/standalone/Desktop/Wed 21-02/subject-83.csv"	"[member6]"	"4"	"1"	"5"	"2"	"7"	"3"	"xpyriment"	"Jazzy James"	"3.1.6"	"0"	"2"	"legacy"	"1024"	"2"	"48000"	"-16"	"experiment"	"83"	"odd"	"legacy"	"[target2]"	"present"	"absent"	"2621"	NA	"176395"	"2621"	NA	"158962"	"165033"	"167465"	"169110"	"181177"	"153543"	NA	"2554"	"2615"	"2619"	"163055"	"123037"	NA	"127076"	"126839"	"2659"	"126839"	"162365"	"181177"	"165078"	"2619"	"2621"	"167465"	"178341"	NA	"126812"	"2555"	"2554"	"2555"	"162365"	"lineup1"	"no"	"6"	"no"	"1366"
"56"	""	"white"	"no"	"xpyriment"	"legacy"	"legacy"	"0"	"no"	"relative"	"1"	"1"	"1"	"1"	"1"	"11"	"11"	"1"	"1"	"1"	"11"	"0"	"0"	"0"	"1"	"12"	"1"	"1"	"11"	"1"	"1"	"1"	"11"	"17"	"1"	"1"	"1"	"1"	"1"	"1"	"1"	"0"	"0"	"0"	"11"	"02/21/18 14:51:03"	"Executes Python code"	"yes"	""	"lineup_videoVIPER_W.osexp"	"C:/Users/standalone/Desktop/Wed 21-02"	"no"	"mono"	"no"	"24"	"no"	"black"	"no"	"yes"	"male"	"768"	"No"	"Yes"	"One"	"No"	"legacy"	"0"	"0"	"C:/Users/standalone/Desktop/Wed 21-02/subject-83.csv"	"[member6]"	"3"	"5"	"4"	"1"	"6"	"2"	"xpyriment"	"Jazzy James"	"3.1.6"	"0"	"2"	"legacy"	"1024"	"2"	"48000"	"-16"	"experiment"	"83"	"odd"	"legacy"	"[target1]"	"present"	"absent"	"2621"	"181244"	"176395"	"2621"	"181245"	"158962"	"165033"	"167465"	"169110"	"181177"	"153543"	NA	"2554"	"2615"	"181242"	"163055"	"123037"	NA	"127076"	"126839"	"2659"	"126839"	"162365"	"181245"	"165078"	"181242"	"181244"	"167465"	"178341"	NA	"126812"	"2555"	"2554"	"2555"	"162365"	"lineup1"	"no"	"6"	"no"	"1366"
"57"	""	"white"	"no"	"xpyriment"	"legacy"	"legacy"	"0"	"40"	"relative"	"1"	"1"	"2"	"1"	"1"	"12"	"12"	"2"	"2"	"2"	"12"	"0"	"0"	"0"	"1"	"13"	"2"	"2"	"12"	"2"	"1"	"2"	"12"	"19"	"2"	"1"	"1"	"2"	"2"	"2"	"2"	"0"	"0"	"0"	"12"	"02/21/18 14:51:03"	"Executes Python code"	"yes"	""	"lineup_videoVIPER_W.osexp"	"C:/Users/standalone/Desktop/Wed 21-02"	"no"	"mono"	"no"	"24"	"no"	"black"	"no"	"yes"	"male"	"768"	"Yes"	"no"	"no"	"no"	"legacy"	"0"	"0"	"C:/Users/standalone/Desktop/Wed 21-02/subject-83.csv"	"[member1]"	"3"	"5"	"4"	"1"	"6"	"2"	"xpyriment"	"Jazzy James"	"3.1.6"	"0"	"2"	"legacy"	"1024"	"2"	"48000"	"-16"	"experiment"	"83"	"odd"	"legacy"	"[target1]"	"present"	"absent"	"2621"	"181244"	"176395"	"2621"	"181245"	"214516"	"210903"	"167465"	"169110"	"181177"	"210903"	NA	"2554"	"2615"	"181242"	"208827"	"123037"	NA	"181524"	"181305"	"181276"	"181305"	"181524"	"214516"	"165078"	"181242"	"181244"	"167465"	"178341"	NA	"126812"	"2555"	"2554"	"2555"	"184289"	"lineup1"	"no"	"1"	"no"	"1366"
"58"	""	"white"	"no"	"xpyriment"	"legacy"	"legacy"	"0"	"70"	"relative"	"1"	"1"	"2"	"1"	"1"	"13"	"13"	"2"	"2"	"2"	"13"	"0"	"0"	"0"	"1"	"14"	"2"	"2"	"13"	"2"	"1"	"2"	"13"	"20"	"2"	"1"	"1"	"2"	"2"	"2"	"2"	"0"	"0"	"0"	"13"	"02/21/18 14:51:03"	"Executes Python code"	"yes"	""	"lineup_videoVIPER_W.osexp"	"C:/Users/standalone/Desktop/Wed 21-02"	"no"	"mono"	"no"	"24"	"no"	"black"	"no"	"yes"	"male"	"768"	"Yes"	"no"	"no"	"no"	"legacy"	"1"	"0"	"C:/Users/standalone/Desktop/Wed 21-02/subject-83.csv"	"[member2]"	"3"	"5"	"4"	"1"	"6"	"2"	"xpyriment"	"Jazzy James"	"3.1.6"	"0"	"2"	"legacy"	"1024"	"2"	"48000"	"-16"	"experiment"	"83"	"odd"	"legacy"	"[target1]"	"present"	"absent"	"2621"	"181244"	"176395"	"2621"	"181245"	"226481"	"223782"	"167465"	"169110"	"181177"	"223782"	NA	"2554"	"2615"	"181242"	"221906"	"123037"	NA	"181524"	"181305"	"181276"	"181305"	"214784"	"226481"	"165078"	"181242"	"181244"	"167465"	"178341"	NA	"126812"	"2555"	"2554"	"2555"	"214784"	"lineup1"	"no"	"2"	"no"	"1366"
"59"	""	"white"	"no"	"xpyriment"	"legacy"	"legacy"	"0"	"no"	"relative"	"1"	"1"	"2"	"1"	"1"	"14"	"14"	"2"	"2"	"2"	"14"	"0"	"0"	"0"	"1"	"15"	"2"	"2"	"14"	"2"	"1"	"2"	"14"	"21"	"2"	"1"	"1"	"2"	"2"	"2"	"2"	"0"	"0"	"0"	"14"	"02/21/18 14:51:03"	"Executes Python code"	"yes"	""	"lineup_videoVIPER_W.osexp"	"C:/Users/standalone/Desktop/Wed 21-02"	"no"	"mono"	"no"	"24"	"no"	"black"	"no"	"yes"	"male"	"768"	"No"	"no"	"no"	"no"	"legacy"	"2"	"0"	"C:/Users/standalone/Desktop/Wed 21-02/subject-83.csv"	"[member3]"	"3"	"5"	"4"	"1"	"6"	"2"	"xpyriment"	"Jazzy James"	"3.1.6"	"0"	"2"	"legacy"	"1024"	"2"	"48000"	"-16"	"experiment"	"83"	"odd"	"legacy"	"[target1]"	"present"	"absent"	"2621"	"181244"	"176395"	"2621"	"181245"	"226481"	"230033"	"167465"	"169110"	"181177"	"223782"	NA	"2554"	"2615"	"181242"	"227663"	"123037"	NA	"181524"	"181305"	"181276"	"181305"	"226781"	"230033"	"165078"	"181242"	"181244"	"167465"	"178341"	NA	"126812"	"2555"	"2554"	"2555"	"226781"	"lineup1"	"no"	"3"	"no"	"1366"
"60"	""	"white"	"no"	"xpyriment"	"legacy"	"legacy"	"0"	"no"	"relative"	"1"	"1"	"2"	"1"	"1"	"15"	"15"	"2"	"2"	"2"	"15"	"0"	"0"	"0"	"1"	"16"	"2"	"2"	"15"	"2"	"1"	"2"	"15"	"22"	"2"	"1"	"1"	"2"	"2"	"2"	"2"	"0"	"0"	"0"	"15"	"02/21/18 14:51:03"	"Executes Python code"	"yes"	""	"lineup_videoVIPER_W.osexp"	"C:/Users/standalone/Desktop/Wed 21-02"	"no"	"mono"	"no"	"24"	"no"	"black"	"no"	"yes"	"male"	"768"	"No"	"no"	"no"	"no"	"legacy"	"3"	"0"	"C:/Users/standalone/Desktop/Wed 21-02/subject-83.csv"	"[member4]"	"3"	"5"	"4"	"1"	"6"	"2"	"xpyriment"	"Jazzy James"	"3.1.6"	"0"	"2"	"legacy"	"1024"	"2"	"48000"	"-16"	"experiment"	"83"	"odd"	"legacy"	"[target1]"	"present"	"absent"	"2621"	"181244"	"176395"	"2621"	"181245"	"226481"	"234717"	"167465"	"169110"	"181177"	"223782"	NA	"2554"	"2615"	"181242"	"232905"	"123037"	NA	"181524"	"181305"	"181276"	"181305"	"230303"	"234717"	"165078"	"181242"	"181244"	"167465"	"178341"	NA	"126812"	"2555"	"2554"	"2555"	"230303"	"lineup1"	"no"	"4"	"no"	"1366"
"61"	""	"white"	"no"	"xpyriment"	"legacy"	"legacy"	"0"	"no"	"relative"	"1"	"1"	"2"	"1"	"1"	"16"	"16"	"2"	"2"	"2"	"16"	"0"	"0"	"0"	"1"	"17"	"2"	"2"	"16"	"2"	"1"	"2"	"16"	"23"	"2"	"1"	"1"	"2"	"2"	"2"	"2"	"0"	"0"	"0"	"16"	"02/21/18 14:51:03"	"Executes Python code"	"yes"	""	"lineup_videoVIPER_W.osexp"	"C:/Users/standalone/Desktop/Wed 21-02"	"no"	"mono"	"no"	"24"	"no"	"black"	"no"	"yes"	"male"	"768"	"No"	"no"	"no"	"no"	"legacy"	"4"	"0"	"C:/Users/standalone/Desktop/Wed 21-02/subject-83.csv"	"[member5]"	"3"	"5"	"4"	"1"	"6"	"2"	"xpyriment"	"Jazzy James"	"3.1.6"	"0"	"2"	"legacy"	"1024"	"2"	"48000"	"-16"	"experiment"	"83"	"odd"	"legacy"	"[target1]"	"present"	"absent"	"2621"	"181244"	"176395"	"2621"	"181245"	"226481"	"243407"	"167465"	"169110"	"181177"	"223782"	NA	"2554"	"2615"	"181242"	"241739"	"123037"	NA	"181524"	"181305"	"181276"	"181305"	"234984"	"243408"	"165078"	"181242"	"181244"	"167465"	"178341"	NA	"126812"	"2555"	"2554"	"2555"	"234985"	"lineup1"	"no"	"5"	"no"	"1366"
"62"	""	"white"	"no"	"xpyriment"	"legacy"	"legacy"	"0"	"no"	"relative"	"1"	"1"	"2"	"1"	"1"	"17"	"17"	"2"	"2"	"2"	"17"	"0"	"0"	"0"	"1"	"18"	"2"	"2"	"17"	"2"	"1"	"2"	"17"	"24"	"2"	"1"	"1"	"2"	"2"	"2"	"2"	"0"	"0"	"0"	"17"	"02/21/18 14:51:03"	"Executes Python code"	"yes"	""	"lineup_videoVIPER_W.osexp"	"C:/Users/standalone/Desktop/Wed 21-02"	"no"	"mono"	"no"	"24"	"no"	"black"	"no"	"yes"	"male"	"768"	"No"	"no"	"no"	"no"	"legacy"	"5"	"0"	"C:/Users/standalone/Desktop/Wed 21-02/subject-83.csv"	"[member6]"	"3"	"5"	"4"	"1"	"6"	"2"	"xpyriment"	"Jazzy James"	"3.1.6"	"0"	"2"	"legacy"	"1024"	"2"	"48000"	"-16"	"experiment"	"83"	"odd"	"legacy"	"[target1]"	"present"	"absent"	"2621"	"181244"	"176395"	"2621"	"181245"	"226481"	"246046"	"167465"	"169110"	"181177"	"223782"	NA	"2554"	"2615"	"181242"	"244471"	"123037"	NA	"181524"	"181305"	"181276"	"181305"	"243676"	"246046"	"165078"	"181242"	"181244"	"167465"	"178341"	NA	"126812"	"2555"	"2554"	"2555"	"243676"	"lineup1"	"no"	"6"	"no"	"1366"
"63"	""	"white"	"no"	"xpyriment"	"legacy"	"legacy"	"0"	"no"	"relative"	"1"	"1"	"3"	"1"	"1"	"18"	"18"	"3"	"3"	"3"	"18"	"0"	"0"	"0"	"1"	"19"	"3"	"3"	"18"	"3"	"1"	"3"	"18"	"26"	"3"	"1"	"1"	"3"	"3"	"3"	"3"	"0"	"0"	"0"	"18"	"02/21/18 14:51:03"	"Executes Python code"	"yes"	""	"lineup_videoVIPER_W.osexp"	"C:/Users/standalone/Desktop/Wed 21-02"	"no"	"mono"	"no"	"24"	"no"	"black"	"no"	"yes"	"male"	"768"	"No"	"no"	"no"	"no"	"legacy"	"0"	"0"	"C:/Users/standalone/Desktop/Wed 21-02/subject-83.csv"	"[member1]"	"3"	"5"	"4"	"1"	"6"	"2"	"xpyriment"	"Jazzy James"	"3.1.6"	"0"	"2"	"legacy"	"1024"	"2"	"48000"	"-16"	"experiment"	"83"	"odd"	"legacy"	"[target1]"	"present"	"absent"	"2621"	"181244"	"176395"	"2621"	"181245"	"226481"	"261480"	"248317"	"251242"	"181177"	"223782"	NA	"2554"	"2615"	"181242"	"260199"	"251242"	NA	"253040"	"252799"	"181276"	"252799"	"253040"	"261480"	"246085"	"181242"	"181244"	"248317"	"178341"	NA	"252770"	"2555"	"2554"	"2555"	"253928"	"lineup1"	"no"	"1"	"no"	"1366"
"64"	""	"white"	"no"	"xpyriment"	"legacy"	"legacy"	"0"	"no"	"relative"	"1"	"1"	"3"	"1"	"1"	"19"	"19"	"3"	"3"	"3"	"19"	"0"	"0"	"0"	"1"	"20"	"3"	"3"	"19"	"3"	"1"	"3"	"19"	"27"	"3"	"1"	"1"	"3"	"3"	"3"	"3"	"0"	"0"	"0"	"19"	"02/21/18 14:51:03"	"Executes Python code"	"yes"	""	"lineup_videoVIPER_W.osexp"	"C:/Users/standalone/Desktop/Wed 21-02"	"no"	"mono"	"no"	"24"	"no"	"black"	"no"	"yes"	"male"	"768"	"No"	"no"	"no"	"no"	"legacy"	"1"	"0"	"C:/Users/standalone/Desktop/Wed 21-02/subject-83.csv"	"[member2]"	"3"	"5"	"4"	"1"	"6"	"2"	"xpyriment"	"Jazzy James"	"3.1.6"	"0"	"2"	"legacy"	"1024"	"2"	"48000"	"-16"	"experiment"	"83"	"odd"	"legacy"	"[target1]"	"present"	"absent"	"2621"	"181244"	"176395"	"2621"	"181245"	"226481"	"264153"	"248317"	"251242"	"181177"	"223782"	NA	"2554"	"2615"	"181242"	"262376"	"251242"	NA	"253040"	"252799"	"181276"	"252799"	"261749"	"264154"	"246085"	"181242"	"181244"	"248317"	"178341"	NA	"252770"	"2555"	"2554"	"2555"	"261749"	"lineup1"	"no"	"2"	"no"	"1366"
"65"	""	"white"	"no"	"xpyriment"	"legacy"	"legacy"	"0"	"no"	"relative"	"1"	"1"	"3"	"1"	"1"	"20"	"20"	"3"	"3"	"3"	"20"	"0"	"0"	"0"	"1"	"21"	"3"	"3"	"20"	"3"	"1"	"3"	"20"	"28"	"3"	"1"	"1"	"3"	"3"	"3"	"3"	"0"	"0"	"0"	"20"	"02/21/18 14:51:03"	"Executes Python code"	"yes"	""	"lineup_videoVIPER_W.osexp"	"C:/Users/standalone/Desktop/Wed 21-02"	"no"	"mono"	"no"	"24"	"no"	"black"	"no"	"yes"	"male"	"768"	"No"	"no"	"no"	"no"	"legacy"	"2"	"0"	"C:/Users/standalone/Desktop/Wed 21-02/subject-83.csv"	"[member3]"	"3"	"5"	"4"	"1"	"6"	"2"	"xpyriment"	"Jazzy James"	"3.1.6"	"0"	"2"	"legacy"	"1024"	"2"	"48000"	"-16"	"experiment"	"83"	"odd"	"legacy"	"[target1]"	"present"	"absent"	"2621"	"181244"	"176395"	"2621"	"181245"	"226481"	"267101"	"248317"	"251242"	"181177"	"223782"	NA	"2554"	"2615"	"181242"	"265331"	"251242"	NA	"253040"	"252799"	"181276"	"252799"	"264442"	"267102"	"246085"	"181242"	"181244"	"248317"	"178341"	NA	"252770"	"2555"	"2554"	"2555"	"264443"	"lineup1"	"no"	"3"	"no"	"1366"
"66"	""	"white"	"no"	"xpyriment"	"legacy"	"legacy"	"0"	"no"	"relative"	"1"	"1"	"3"	"1"	"1"	"21"	"21"	"3"	"3"	"3"	"21"	"0"	"0"	"0"	"1"	"22"	"3"	"3"	"21"	"3"	"1"	"3"	"21"	"29"	"3"	"1"	"1"	"3"	"3"	"3"	"3"	"0"	"0"	"0"	"21"	"02/21/18 14:51:03"	"Executes Python code"	"yes"	""	"lineup_videoVIPER_W.osexp"	"C:/Users/standalone/Desktop/Wed 21-02"	"no"	"mono"	"no"	"24"	"no"	"black"	"no"	"yes"	"male"	"768"	"No"	"no"	"no"	"no"	"legacy"	"3"	"0"	"C:/Users/standalone/Desktop/Wed 21-02/subject-83.csv"	"[member4]"	"3"	"5"	"4"	"1"	"6"	"2"	"xpyriment"	"Jazzy James"	"3.1.6"	"0"	"2"	"legacy"	"1024"	"2"	"48000"	"-16"	"experiment"	"83"	"odd"	"legacy"	"[target1]"	"present"	"absent"	"2621"	"181244"	"176395"	"2621"	"181245"	"226481"	"271293"	"248317"	"251242"	"181177"	"223782"	NA	"2554"	"2615"	"181242"	"269476"	"251242"	NA	"253040"	"252799"	"181276"	"252799"	"267374"	"271293"	"246085"	"181242"	"181244"	"248317"	"178341"	NA	"252770"	"2555"	"2554"	"2555"	"267374"	"lineup1"	"no"	"4"	"no"	"1366"
"67"	""	"white"	"no"	"xpyriment"	"legacy"	"legacy"	"0"	"no"	"relative"	"1"	"1"	"3"	"1"	"1"	"22"	"22"	"3"	"3"	"3"	"22"	"0"	"0"	"0"	"1"	"23"	"3"	"3"	"22"	"3"	"1"	"3"	"22"	"30"	"3"	"1"	"1"	"3"	"3"	"3"	"3"	"0"	"0"	"0"	"22"	"02/21/18 14:51:03"	"Executes Python code"	"yes"	""	"lineup_videoVIPER_W.osexp"	"C:/Users/standalone/Desktop/Wed 21-02"	"no"	"mono"	"no"	"24"	"no"	"black"	"no"	"yes"	"male"	"768"	"No"	"no"	"no"	"no"	"legacy"	"4"	"0"	"C:/Users/standalone/Desktop/Wed 21-02/subject-83.csv"	"[member5]"	"3"	"5"	"4"	"1"	"6"	"2"	"xpyriment"	"Jazzy James"	"3.1.6"	"0"	"2"	"legacy"	"1024"	"2"	"48000"	"-16"	"experiment"	"83"	"odd"	"legacy"	"[target1]"	"present"	"absent"	"2621"	"181244"	"176395"	"2621"	"181245"	"226481"	"275193"	"248317"	"251242"	"181177"	"223782"	NA	"2554"	"2615"	"181242"	"273586"	"251242"	NA	"253040"	"252799"	"181276"	"252799"	"271561"	"275194"	"246085"	"181242"	"181244"	"248317"	"178341"	NA	"252770"	"2555"	"2554"	"2555"	"271561"	"lineup1"	"no"	"5"	"no"	"1366"
"68"	""	"white"	"no"	"xpyriment"	"legacy"	"legacy"	"0"	"no"	"relative"	"1"	"1"	"3"	"1"	"1"	"23"	"23"	"3"	"3"	"3"	"23"	"0"	"0"	"0"	"1"	"24"	"3"	"3"	"23"	"3"	"1"	"3"	"23"	"31"	"3"	"1"	"1"	"3"	"3"	"3"	"3"	"0"	"0"	"0"	"23"	"02/21/18 14:51:03"	"Executes Python code"	"yes"	""	"lineup_videoVIPER_W.osexp"	"C:/Users/standalone/Desktop/Wed 21-02"	"no"	"mono"	"no"	"24"	"no"	"black"	"no"	"yes"	"male"	"768"	"No"	"no"	"no"	"no"	"legacy"	"5"	"0"	"C:/Users/standalone/Desktop/Wed 21-02/subject-83.csv"	"[member6]"	"3"	"5"	"4"	"1"	"6"	"2"	"xpyriment"	"Jazzy James"	"3.1.6"	"0"	"2"	"legacy"	"1024"	"2"	"48000"	"-16"	"experiment"	"83"	"odd"	"legacy"	"[target1]"	"present"	"absent"	"2621"	"181244"	"176395"	"2621"	"181245"	"226481"	"277861"	"248317"	"251242"	"181177"	"223782"	NA	"2554"	"2615"	"181242"	"276258"	"251242"	NA	"253040"	"252799"	"181276"	"252799"	"275462"	"277861"	"246085"	"181242"	"181244"	"248317"	"178341"	NA	"252770"	"2555"	"2554"	"2555"	"275463"	"lineup1"	"no"	"6"	"no"	"1366"
"69"	""	"white"	"no"	"xpyriment"	"legacy"	"legacy"	"0"	"no"	"relative"	"1"	"1"	"3"	"1"	"1"	"23"	"23"	"3"	"3"	"3"	"23"	"0"	"0"	"0"	"1"	"24"	"3"	"3"	"23"	"3"	"1"	"3"	"23"	"31"	"3"	"1"	"1"	"3"	"3"	"3"	"3"	"0"	"0"	"0"	"23"	"02/21/18 14:51:03"	"Executes Python code"	"yes"	""	"lineup_videoVIPER_W.osexp"	"C:/Users/standalone/Desktop/Wed 21-02"	"no"	"mono"	"no"	"24"	"no"	"black"	"no"	"yes"	"male"	"768"	"No"	"No"	"no"	"No"	"legacy"	"5"	"0"	"C:/Users/standalone/Desktop/Wed 21-02/subject-83.csv"	"[member6]"	"3"	"5"	"4"	"1"	"6"	"2"	"xpyriment"	"Jazzy James"	"3.1.6"	"0"	"2"	"legacy"	"1024"	"2"	"48000"	"-16"	"experiment"	"83"	"odd"	"legacy"	"[target1]"	"present"	"absent"	"2621"	"181244"	"280007"	"2621"	"181245"	"226481"	"277861"	"280007"	"251242"	"288209"	"223782"	NA	"2554"	"2615"	"181242"	"276258"	"251242"	NA	"253040"	"252799"	"181276"	"252799"	"275462"	"288209"	"277915"	"181242"	"181244"	"248317"	"281052"	NA	"252770"	"2555"	"2554"	"2555"	"275463"	"lineup1"	"no"	"6"	"no"	"1366"
"70"	""	"white"	"no"	"xpyriment"	"legacy"	"legacy"	"0"	"no"	"relative"	"1"	"1"	"3"	"1"	"1"	"23"	"23"	"3"	"3"	"3"	"23"	"0"	"0"	"0"	"1"	"24"	"3"	"3"	"23"	"3"	"1"	"3"	"23"	"31"	"3"	"1"	"1"	"3"	"3"	"3"	"3"	"0"	"0"	"0"	"23"	"02/21/18 14:51:03"	"Executes Python code"	"yes"	""	"lineup_videoVIPER_W.osexp"	"C:/Users/standalone/Desktop/Wed 21-02"	"no"	"mono"	"no"	"24"	"no"	"black"	"no"	"yes"	"male"	"768"	"No"	"No"	"no"	"No"	"legacy"	"5"	"0"	"C:/Users/standalone/Desktop/Wed 21-02/subject-83.csv"	"[member6]"	"3"	"5"	"4"	"1"	"6"	"2"	"xpyriment"	"Jazzy James"	"3.1.6"	"0"	"2"	"legacy"	"1024"	"2"	"48000"	"-16"	"experiment"	"83"	"odd"	"legacy"	"[target1]"	"present"	"absent"	"2621"	"181244"	"288265"	"2621"	"181245"	"226481"	"277861"	"280007"	"251242"	"291146"	"223782"	NA	"2554"	"2615"	"181242"	"276258"	"251242"	NA	"253040"	"252799"	"181276"	"252799"	"275462"	"291146"	"277915"	"181242"	"181244"	"248317"	"289100"	NA	"252770"	"2555"	"2554"	"2555"	"275463"	"lineup1"	"no"	"6"	"no"	"1366"
"71"	""	"white"	"no"	"xpyriment"	"legacy"	"legacy"	"0"	"no"	"relative"	"1"	"1"	"3"	"1"	"1"	"23"	"23"	"3"	"3"	"3"	"23"	"0"	"0"	"0"	"1"	"24"	"3"	"3"	"23"	"3"	"1"	"3"	"23"	"31"	"3"	"1"	"1"	"3"	"3"	"3"	"3"	"0"	"0"	"0"	"23"	"02/21/18 14:51:03"	"Executes Python code"	"yes"	""	"lineup_videoVIPER_W.osexp"	"C:/Users/standalone/Desktop/Wed 21-02"	"no"	"mono"	"no"	"24"	"no"	"black"	"no"	"yes"	"male"	"768"	"No"	"No"	"no"	"No"	"legacy"	"5"	"0"	"C:/Users/standalone/Desktop/Wed 21-02/subject-83.csv"	"[member6]"	"3"	"5"	"4"	"1"	"6"	"2"	"xpyriment"	"Jazzy James"	"3.1.6"	"0"	"2"	"legacy"	"1024"	"2"	"48000"	"-16"	"experiment"	"83"	"odd"	"legacy"	"[target1]"	"present"	"absent"	"2621"	"181244"	"288265"	"2621"	"181245"	"226481"	"277861"	"280007"	"251242"	"291146"	"223782"	"291206"	"2554"	"2615"	"181242"	"276258"	"251242"	NA	"253040"	"252799"	"181276"	"252799"	"275462"	"292643"	"277915"	"181242"	"181244"	"248317"	"289100"	NA	"252770"	"2555"	"2554"	"2555"	"275463"	"lineup1"	"no"	"6"	"no"	"1366"
"72"	""	"white"	"no"	"xpyriment"	"legacy"	"legacy"	"0"	NA	"relative"	NA	NA	NA	NA	NA	NA	NA	NA	NA	NA	NA	"0"	"0"	"0"	NA	NA	NA	NA	NA	NA	NA	NA	NA	"1"	NA	NA	NA	NA	NA	NA	NA	"0"	"0"	"0"	NA	"02/21/18 14:44:48"	"Executes Python code"	"yes"	""	"lineup_videoVIPER_W.osexp"	"C:/Users/standalone/Desktop/Wed 21-02"	"no"	"mono"	"no"	"24"	"no"	"black"	"no"	"yes"	NA	"768"	NA	NA	NA	NA	"legacy"	"0"	"0"	"C:/Users/standalone/Desktop/Wed 21-02/subject-84.csv"	NA	NA	NA	NA	NA	NA	NA	"xpyriment"	"Jazzy James"	"3.1.6"	"0"	"2"	"legacy"	"1024"	"2"	"48000"	"-16"	"experiment"	"84"	"even"	"legacy"	NA	"present"	"absent"	NA	NA	NA	NA	NA	NA	NA	NA	NA	NA	NA	NA	"2504"	NA	NA	NA	NA	NA	NA	NA	NA	NA	NA	"2506"	NA	NA	NA	NA	NA	NA	NA	"2506"	"2504"	"2506"	NA	"lineup1"	"no"	NA	"no"	"1366"
"73"	""	"white"	"no"	"xpyriment"	"legacy"	"legacy"	"0"	NA	"relative"	"0"	"0"	NA	"0"	"0"	NA	NA	NA	NA	NA	NA	"0"	"0"	"0"	"0"	NA	NA	NA	NA	NA	"0"	NA	NA	"2"	NA	"0"	"0"	NA	NA	NA	NA	"0"	"0"	"0"	NA	"02/21/18 14:44:48"	"Executes Python code"	"yes"	""	"lineup_videoVIPER_W.osexp"	"C:/Users/standalone/Desktop/Wed 21-02"	"no"	"mono"	"no"	"24"	"no"	"black"	"no"	"yes"	"male"	"768"	NA	NA	NA	NA	"legacy"	"0"	"0"	"C:/Users/standalone/Desktop/Wed 21-02/subject-84.csv"	NA	"3"	"1"	"2"	"4"	"5"	"6"	"xpyriment"	"Jazzy James"	"3.1.6"	"0"	"2"	"legacy"	"1024"	"2"	"48000"	"-16"	"experiment"	"84"	"even"	"legacy"	"[target1]"	"present"	"absent"	NA	"2574"	NA	NA	"2574"	NA	NA	NA	NA	NA	NA	NA	"2504"	"2568"	"2572"	NA	NA	NA	NA	NA	NA	NA	NA	"2574"	NA	"2572"	"2574"	NA	NA	NA	NA	"2506"	"2504"	"2506"	NA	"lineup1"	"no"	NA	"no"	"1366"
"74"	""	"white"	"no"	"xpyriment"	"legacy"	"legacy"	"0"	"no"	"relative"	"0"	"0"	"0"	"0"	"0"	"0"	"0"	"0"	"0"	"0"	"0"	"0"	"0"	"0"	"0"	"0"	"0"	"0"	"0"	"0"	"0"	"0"	"0"	"4"	"0"	"0"	"0"	"0"	"0"	"0"	"0"	"0"	"0"	"0"	"0"	"02/21/18 14:44:48"	"Executes Python code"	"yes"	""	"lineup_videoVIPER_W.osexp"	"C:/Users/standalone/Desktop/Wed 21-02"	"no"	"mono"	"no"	"24"	"no"	"black"	"no"	"yes"	"male"	"768"	"No"	"no"	"no"	"no"	"legacy"	"0"	"0"	"C:/Users/standalone/Desktop/Wed 21-02/subject-84.csv"	"[member1]"	"3"	"1"	"2"	"4"	"5"	"6"	"xpyriment"	"Jazzy James"	"3.1.6"	"0"	"2"	"legacy"	"1024"	"2"	"48000"	"-16"	"experiment"	"84"	"even"	"legacy"	"[target1]"	"present"	"absent"	NA	"2574"	NA	NA	"2574"	NA	"87229"	NA	NA	NA	NA	NA	"2504"	"2568"	"2572"	"82187"	NA	NA	"3016"	"2640"	"2611"	"2640"	"3016"	"87229"	NA	"2572"	"2574"	NA	NA	NA	NA	"2506"	"2504"	"2506"	"64565"	"lineup1"	"no"	"1"	"no"	"1366"
"75"	""	"white"	"no"	"xpyriment"	"legacy"	"legacy"	"0"	"no"	"relative"	"0"	"0"	"0"	"0"	"0"	"1"	"1"	"0"	"0"	"0"	"1"	"0"	"0"	"0"	"0"	"1"	"0"	"0"	"1"	"0"	"0"	"0"	"1"	"5"	"0"	"0"	"0"	"0"	"0"	"0"	"0"	"0"	"0"	"0"	"1"	"02/21/18 14:44:48"	"Executes Python code"	"yes"	""	"lineup_videoVIPER_W.osexp"	"C:/Users/standalone/Desktop/Wed 21-02"	"no"	"mono"	"no"	"24"	"no"	"black"	"no"	"yes"	"male"	"768"	"Not sure"	"no"	"no"	"no"	"legacy"	"1"	"0"	"C:/Users/standalone/Desktop/Wed 21-02/subject-84.csv"	"[member2]"	"3"	"1"	"2"	"4"	"5"	"6"	"xpyriment"	"Jazzy James"	"3.1.6"	"0"	"2"	"legacy"	"1024"	"2"	"48000"	"-16"	"experiment"	"84"	"even"	"legacy"	"[target1]"	"present"	"absent"	NA	"2574"	NA	NA	"2574"	NA	"107740"	NA	NA	NA	NA	NA	"2504"	"2568"	"2572"	"104677"	NA	NA	"3016"	"2640"	"2611"	"2640"	"87498"	"107740"	NA	"2572"	"2574"	NA	NA	NA	NA	"2506"	"2504"	"2506"	"87498"	"lineup1"	"no"	"2"	"no"	"1366"
"76"	""	"white"	"no"	"xpyriment"	"legacy"	"legacy"	"0"	"no"	"relative"	"0"	"0"	"0"	"0"	"0"	"2"	"2"	"0"	"0"	"0"	"2"	"0"	"0"	"0"	"0"	"2"	"0"	"0"	"2"	"0"	"0"	"0"	"2"	"6"	"0"	"0"	"0"	"0"	"0"	"0"	"0"	"0"	"0"	"0"	"2"	"02/21/18 14:44:48"	"Executes Python code"	"yes"	""	"lineup_videoVIPER_W.osexp"	"C:/Users/standalone/Desktop/Wed 21-02"	"no"	"mono"	"no"	"24"	"no"	"black"	"no"	"yes"	"male"	"768"	"No"	"no"	"no"	"no"	"legacy"	"2"	"0"	"C:/Users/standalone/Desktop/Wed 21-02/subject-84.csv"	"[member3]"	"3"	"1"	"2"	"4"	"5"	"6"	"xpyriment"	"Jazzy James"	"3.1.6"	"0"	"2"	"legacy"	"1024"	"2"	"48000"	"-16"	"experiment"	"84"	"even"	"legacy"	"[target1]"	"present"	"absent"	NA	"2574"	NA	NA	"2574"	NA	"113953"	NA	NA	NA	NA	NA	"2504"	"2568"	"2572"	"111908"	NA	NA	"3016"	"2640"	"2611"	"2640"	"107999"	"113953"	NA	"2572"	"2574"	NA	NA	NA	NA	"2506"	"2504"	"2506"	"107999"	"lineup1"	"no"	"3"	"no"	"1366"
"77"	""	"white"	"no"	"xpyriment"	"legacy"	"legacy"	"0"	"no"	"relative"	"0"	"0"	"0"	"0"	"0"	"3"	"3"	"0"	"0"	"0"	"3"	"0"	"0"	"0"	"0"	"3"	"0"	"0"	"3"	"0"	"0"	"0"	"3"	"7"	"0"	"0"	"0"	"0"	"0"	"0"	"0"	"0"	"0"	"0"	"3"	"02/21/18 14:44:48"	"Executes Python code"	"yes"	""	"lineup_videoVIPER_W.osexp"	"C:/Users/standalone/Desktop/Wed 21-02"	"no"	"mono"	"no"	"24"	"no"	"black"	"no"	"yes"	"male"	"768"	"No"	"no"	"no"	"no"	"legacy"	"3"	"0"	"C:/Users/standalone/Desktop/Wed 21-02/subject-84.csv"	"[member4]"	"3"	"1"	"2"	"4"	"5"	"6"	"xpyriment"	"Jazzy James"	"3.1.6"	"0"	"2"	"legacy"	"1024"	"2"	"48000"	"-16"	"experiment"	"84"	"even"	"legacy"	"[target1]"	"present"	"absent"	NA	"2574"	NA	NA	"2574"	NA	"125174"	NA	NA	NA	NA	NA	"2504"	"2568"	"2572"	"121126"	NA	NA	"3016"	"2640"	"2611"	"2640"	"114221"	"125174"	NA	"2572"	"2574"	NA	NA	NA	NA	"2506"	"2504"	"2506"	"114221"	"lineup1"	"no"	"4"	"no"	"1366"
"78"	""	"white"	"no"	"xpyriment"	"legacy"	"legacy"	"0"	"no"	"relative"	"0"	"0"	"0"	"0"	"0"	"4"	"4"	"0"	"0"	"0"	"4"	"0"	"0"	"0"	"0"	"4"	"0"	"0"	"4"	"0"	"0"	"0"	"4"	"8"	"0"	"0"	"0"	"0"	"0"	"0"	"0"	"0"	"0"	"0"	"4"	"02/21/18 14:44:48"	"Executes Python code"	"yes"	""	"lineup_videoVIPER_W.osexp"	"C:/Users/standalone/Desktop/Wed 21-02"	"no"	"mono"	"no"	"24"	"no"	"black"	"no"	"yes"	"male"	"768"	"Not sure"	"no"	"no"	"no"	"legacy"	"4"	"0"	"C:/Users/standalone/Desktop/Wed 21-02/subject-84.csv"	"[member5]"	"3"	"1"	"2"	"4"	"5"	"6"	"xpyriment"	"Jazzy James"	"3.1.6"	"0"	"2"	"legacy"	"1024"	"2"	"48000"	"-16"	"experiment"	"84"	"even"	"legacy"	"[target1]"	"present"	"absent"	NA	"2574"	NA	NA	"2574"	NA	"132580"	NA	NA	NA	NA	NA	"2504"	"2568"	"2572"	"129538"	NA	NA	"3016"	"2640"	"2611"	"2640"	"125455"	"132581"	NA	"2572"	"2574"	NA	NA	NA	NA	"2506"	"2504"	"2506"	"125455"	"lineup1"	"no"	"5"	"no"	"1366"
"79"	""	"white"	"no"	"xpyriment"	"legacy"	"legacy"	"0"	"no"	"relative"	"0"	"0"	"0"	"0"	"0"	"5"	"5"	"0"	"0"	"0"	"5"	"0"	"0"	"0"	"0"	"5"	"0"	"0"	"5"	"0"	"0"	"0"	"5"	"9"	"0"	"0"	"0"	"0"	"0"	"0"	"0"	"0"	"0"	"0"	"5"	"02/21/18 14:44:48"	"Executes Python code"	"yes"	""	"lineup_videoVIPER_W.osexp"	"C:/Users/standalone/Desktop/Wed 21-02"	"no"	"mono"	"no"	"24"	"no"	"black"	"no"	"yes"	"male"	"768"	"Not sure"	"no"	"no"	"no"	"legacy"	"5"	"0"	"C:/Users/standalone/Desktop/Wed 21-02/subject-84.csv"	"[member6]"	"3"	"1"	"2"	"4"	"5"	"6"	"xpyriment"	"Jazzy James"	"3.1.6"	"0"	"2"	"legacy"	"1024"	"2"	"48000"	"-16"	"experiment"	"84"	"even"	"legacy"	"[target1]"	"present"	"absent"	NA	"2574"	NA	NA	"2574"	NA	"149532"	NA	NA	NA	NA	NA	"2504"	"2568"	"2572"	"146678"	NA	NA	"3016"	"2640"	"2611"	"2640"	"132851"	"149532"	NA	"2572"	"2574"	NA	NA	NA	NA	"2506"	"2504"	"2506"	"132851"	"lineup1"	"no"	"6"	"no"	"1366"
"80"	""	"white"	"no"	"xpyriment"	"legacy"	"legacy"	"0"	"no"	"relative"	"0"	"0"	"0"	"0"	"0"	"5"	"5"	"0"	"0"	"0"	"5"	"0"	"0"	"0"	"0"	"5"	"0"	"0"	"5"	"0"	"0"	"0"	"5"	"9"	"0"	"0"	"0"	"0"	"0"	"0"	"0"	"0"	"0"	"0"	"5"	"02/21/18 14:44:48"	"Executes Python code"	"yes"	""	"lineup_videoVIPER_W.osexp"	"C:/Users/standalone/Desktop/Wed 21-02"	"no"	"mono"	"no"	"24"	"no"	"black"	"no"	"yes"	"male"	"768"	"Not sure"	"No"	"no"	"No"	"legacy"	"5"	"0"	"C:/Users/standalone/Desktop/Wed 21-02/subject-84.csv"	"[member6]"	"3"	"1"	"2"	"4"	"5"	"6"	"xpyriment"	"Jazzy James"	"3.1.6"	"0"	"2"	"legacy"	"1024"	"2"	"48000"	"-16"	"experiment"	"84"	"even"	"legacy"	"[target1]"	"present"	"absent"	NA	"2574"	"155096"	NA	"2574"	NA	"149532"	"155096"	NA	"175001"	NA	NA	"2504"	"2568"	"2572"	"146678"	NA	NA	"3016"	"2640"	"2611"	"2640"	"132851"	"175001"	"149584"	"2572"	"2574"	NA	"169591"	NA	NA	"2506"	"2504"	"2506"	"132851"	"lineup1"	"no"	"6"	"no"	"1366"
"81"	""	"white"	"no"	"xpyriment"	"legacy"	"legacy"	"0"	"no"	"relative"	"1"	"1"	"0"	"1"	"1"	"5"	"5"	"0"	"0"	"0"	"5"	"0"	"0"	"0"	"1"	"5"	"0"	"0"	"5"	"0"	"1"	"0"	"5"	"10"	"0"	"1"	"1"	"0"	"0"	"0"	"0"	"0"	"0"	"0"	"5"	"02/21/18 14:44:48"	"Executes Python code"	"yes"	""	"lineup_videoVIPER_W.osexp"	"C:/Users/standalone/Desktop/Wed 21-02"	"no"	"mono"	"no"	"24"	"no"	"black"	"no"	"yes"	"female"	"768"	"Not sure"	"No"	"no"	"No"	"legacy"	"0"	"0"	"C:/Users/standalone/Desktop/Wed 21-02/subject-84.csv"	"[member6]"	"1"	"4"	"3"	"7"	"5"	"2"	"xpyriment"	"Jazzy James"	"3.1.6"	"0"	"2"	"legacy"	"1024"	"2"	"48000"	"-16"	"experiment"	"84"	"even"	"legacy"	"[target2]"	"present"	"absent"	"175065"	"2574"	"155096"	"175065"	"2574"	NA	"149532"	"155096"	NA	"175001"	NA	NA	"2504"	"2568"	"175062"	"146678"	NA	NA	"3016"	"2640"	"2611"	"2640"	"132851"	"175065"	"149584"	"175062"	"175065"	NA	"169591"	NA	NA	"2506"	"2504"	"2506"	"132851"	"lineup1"	"no"	"6"	"no"	"1366"
"82"	""	"white"	"no"	"xpyriment"	"legacy"	"legacy"	"0"	"no"	"relative"	"1"	"1"	"1"	"1"	"1"	"6"	"6"	"1"	"1"	"1"	"6"	"0"	"0"	"0"	"1"	"6"	"1"	"1"	"6"	"1"	"1"	"1"	"6"	"12"	"1"	"1"	"1"	"1"	"1"	"1"	"1"	"0"	"0"	"0"	"6"	"02/21/18 14:44:48"	"Executes Python code"	"yes"	""	"lineup_videoVIPER_W.osexp"	"C:/Users/standalone/Desktop/Wed 21-02"	"no"	"mono"	"no"	"24"	"no"	"black"	"no"	"yes"	"female"	"768"	"No"	"no"	"no"	"no"	"legacy"	"0"	"0"	"C:/Users/standalone/Desktop/Wed 21-02/subject-84.csv"	"[member1]"	"1"	"4"	"3"	"7"	"5"	"2"	"xpyriment"	"Jazzy James"	"3.1.6"	"0"	"2"	"legacy"	"1024"	"2"	"48000"	"-16"	"experiment"	"84"	"even"	"legacy"	"[target2]"	"present"	"absent"	"175065"	"2574"	"155096"	"175065"	"2574"	NA	"194644"	"155096"	NA	"175001"	NA	NA	"2504"	"2568"	"175062"	"192580"	NA	NA	"175352"	"175126"	"175096"	"175125"	"175352"	"194644"	"149584"	"175062"	"175065"	NA	"169591"	NA	NA	"2506"	"2504"	"2506"	"179232"	"lineup1"	"no"	"1"	"no"	"1366"
"83"	""	"white"	"no"	"xpyriment"	"legacy"	"legacy"	"0"	"no"	"relative"	"1"	"1"	"1"	"1"	"1"	"7"	"7"	"1"	"1"	"1"	"7"	"0"	"0"	"0"	"1"	"7"	"1"	"1"	"7"	"1"	"1"	"1"	"7"	"13"	"1"	"1"	"1"	"1"	"1"	"1"	"1"	"0"	"0"	"0"	"7"	"02/21/18 14:44:48"	"Executes Python code"	"yes"	""	"lineup_videoVIPER_W.osexp"	"C:/Users/standalone/Desktop/Wed 21-02"	"no"	"mono"	"no"	"24"	"no"	"black"	"no"	"yes"	"female"	"768"	"No"	"no"	"no"	"no"	"legacy"	"1"	"0"	"C:/Users/standalone/Desktop/Wed 21-02/subject-84.csv"	"[member2]"	"1"	"4"	"3"	"7"	"5"	"2"	"xpyriment"	"Jazzy James"	"3.1.6"	"0"	"2"	"legacy"	"1024"	"2"	"48000"	"-16"	"experiment"	"84"	"even"	"legacy"	"[target2]"	"present"	"absent"	"175065"	"2574"	"155096"	"175065"	"2574"	NA	"198924"	"155096"	NA	"175001"	NA	NA	"2504"	"2568"	"175062"	"197316"	NA	NA	"175352"	"175126"	"175096"	"175125"	"194915"	"198924"	"149584"	"175062"	"175065"	NA	"169591"	NA	NA	"2506"	"2504"	"2506"	"194915"	"lineup1"	"no"	"2"	"no"	"1366"
"84"	""	"white"	"no"	"xpyriment"	"legacy"	"legacy"	"0"	"no"	"relative"	"1"	"1"	"1"	"1"	"1"	"8"	"8"	"1"	"1"	"1"	"8"	"0"	"0"	"0"	"1"	"8"	"1"	"1"	"8"	"1"	"1"	"1"	"8"	"14"	"1"	"1"	"1"	"1"	"1"	"1"	"1"	"0"	"0"	"0"	"8"	"02/21/18 14:44:48"	"Executes Python code"	"yes"	""	"lineup_videoVIPER_W.osexp"	"C:/Users/standalone/Desktop/Wed 21-02"	"no"	"mono"	"no"	"24"	"no"	"black"	"no"	"yes"	"female"	"768"	"No"	"no"	"no"	"no"	"legacy"	"2"	"0"	"C:/Users/standalone/Desktop/Wed 21-02/subject-84.csv"	"[member3]"	"1"	"4"	"3"	"7"	"5"	"2"	"xpyriment"	"Jazzy James"	"3.1.6"	"0"	"2"	"legacy"	"1024"	"2"	"48000"	"-16"	"experiment"	"84"	"even"	"legacy"	"[target2]"	"present"	"absent"	"175065"	"2574"	"155096"	"175065"	"2574"	NA	"204036"	"155096"	NA	"175001"	NA	NA	"2504"	"2568"	"175062"	"202029"	NA	NA	"175352"	"175126"	"175096"	"175125"	"199196"	"204036"	"149584"	"175062"	"175065"	NA	"169591"	NA	NA	"2506"	"2504"	"2506"	"199196"	"lineup1"	"no"	"3"	"no"	"1366"
"85"	""	"white"	"no"	"xpyriment"	"legacy"	"legacy"	"0"	"no"	"relative"	"1"	"1"	"1"	"1"	"1"	"9"	"9"	"1"	"1"	"1"	"9"	"0"	"0"	"0"	"1"	"9"	"1"	"1"	"9"	"1"	"1"	"1"	"9"	"15"	"1"	"1"	"1"	"1"	"1"	"1"	"1"	"0"	"0"	"0"	"9"	"02/21/18 14:44:48"	"Executes Python code"	"yes"	""	"lineup_videoVIPER_W.osexp"	"C:/Users/standalone/Desktop/Wed 21-02"	"no"	"mono"	"no"	"24"	"no"	"black"	"no"	"yes"	"female"	"768"	"No"	"no"	"no"	"no"	"legacy"	"3"	"0"	"C:/Users/standalone/Desktop/Wed 21-02/subject-84.csv"	"[member4]"	"1"	"4"	"3"	"7"	"5"	"2"	"xpyriment"	"Jazzy James"	"3.1.6"	"0"	"2"	"legacy"	"1024"	"2"	"48000"	"-16"	"experiment"	"84"	"even"	"legacy"	"[target2]"	"present"	"absent"	"175065"	"2574"	"155096"	"175065"	"2574"	NA	"208703"	"155096"	NA	"175001"	NA	NA	"2504"	"2568"	"175062"	"206691"	NA	NA	"175352"	"175126"	"175096"	"175125"	"204312"	"208703"	"149584"	"175062"	"175065"	NA	"169591"	NA	NA	"2506"	"2504"	"2506"	"204312"	"lineup1"	"no"	"4"	"no"	"1366"
"86"	""	"white"	"no"	"xpyriment"	"legacy"	"legacy"	"0"	"no"	"relative"	"1"	"1"	"1"	"1"	"1"	"10"	"10"	"1"	"1"	"1"	"10"	"0"	"0"	"0"	"1"	"10"	"1"	"1"	"10"	"1"	"1"	"1"	"10"	"16"	"1"	"1"	"1"	"1"	"1"	"1"	"1"	"0"	"0"	"0"	"10"	"02/21/18 14:44:48"	"Executes Python code"	"yes"	""	"lineup_videoVIPER_W.osexp"	"C:/Users/standalone/Desktop/Wed 21-02"	"no"	"mono"	"no"	"24"	"no"	"black"	"no"	"yes"	"female"	"768"	"No"	"no"	"no"	"no"	"legacy"	"4"	"0"	"C:/Users/standalone/Desktop/Wed 21-02/subject-84.csv"	"[member5]"	"1"	"4"	"3"	"7"	"5"	"2"	"xpyriment"	"Jazzy James"	"3.1.6"	"0"	"2"	"legacy"	"1024"	"2"	"48000"	"-16"	"experiment"	"84"	"even"	"legacy"	"[target2]"	"present"	"absent"	"175065"	"2574"	"155096"	"175065"	"2574"	NA	"215756"	"155096"	NA	"175001"	NA	NA	"2504"	"2568"	"175062"	"214083"	NA	NA	"175352"	"175126"	"175096"	"175125"	"208973"	"215756"	"149584"	"175062"	"175065"	NA	"169591"	NA	NA	"2506"	"2504"	"2506"	"208973"	"lineup1"	"no"	"5"	"no"	"1366"
"87"	""	"white"	"no"	"xpyriment"	"legacy"	"legacy"	"0"	"no"	"relative"	"1"	"1"	"1"	"1"	"1"	"11"	"11"	"1"	"1"	"1"	"11"	"0"	"0"	"0"	"1"	"11"	"1"	"1"	"11"	"1"	"1"	"1"	"11"	"17"	"1"	"1"	"1"	"1"	"1"	"1"	"1"	"0"	"0"	"0"	"11"	"02/21/18 14:44:48"	"Executes Python code"	"yes"	""	"lineup_videoVIPER_W.osexp"	"C:/Users/standalone/Desktop/Wed 21-02"	"no"	"mono"	"no"	"24"	"no"	"black"	"no"	"yes"	"female"	"768"	"No"	"no"	"no"	"no"	"legacy"	"5"	"0"	"C:/Users/standalone/Desktop/Wed 21-02/subject-84.csv"	"[member6]"	"1"	"4"	"3"	"7"	"5"	"2"	"xpyriment"	"Jazzy James"	"3.1.6"	"0"	"2"	"legacy"	"1024"	"2"	"48000"	"-16"	"experiment"	"84"	"even"	"legacy"	"[target2]"	"present"	"absent"	"175065"	"2574"	"155096"	"175065"	"2574"	NA	"233745"	"155096"	NA	"175001"	NA	NA	"2504"	"2568"	"175062"	"231702"	NA	NA	"175352"	"175126"	"175096"	"175125"	"216028"	"233745"	"149584"	"175062"	"175065"	NA	"169591"	NA	NA	"2506"	"2504"	"2506"	"216028"	"lineup1"	"no"	"6"	"no"	"1366"
"88"	""	"white"	"no"	"xpyriment"	"legacy"	"legacy"	"0"	"no"	"relative"	"1"	"1"	"1"	"1"	"1"	"11"	"11"	"1"	"1"	"1"	"11"	"0"	"0"	"0"	"1"	"11"	"1"	"1"	"11"	"1"	"1"	"1"	"11"	"17"	"1"	"1"	"1"	"1"	"1"	"1"	"1"	"0"	"0"	"0"	"11"	"02/21/18 14:44:48"	"Executes Python code"	"yes"	""	"lineup_videoVIPER_W.osexp"	"C:/Users/standalone/Desktop/Wed 21-02"	"no"	"mono"	"no"	"24"	"no"	"black"	"no"	"yes"	"female"	"768"	"No"	"No"	"no"	"No"	"legacy"	"5"	"0"	"C:/Users/standalone/Desktop/Wed 21-02/subject-84.csv"	"[member6]"	"1"	"4"	"3"	"7"	"5"	"2"	"xpyriment"	"Jazzy James"	"3.1.6"	"0"	"2"	"legacy"	"1024"	"2"	"48000"	"-16"	"experiment"	"84"	"even"	"legacy"	"[target2]"	"present"	"absent"	"175065"	"2574"	"236318"	"175065"	"2574"	NA	"233745"	"236318"	NA	"242820"	NA	NA	"2504"	"2568"	"175062"	"231702"	NA	NA	"175352"	"175126"	"175096"	"175125"	"216028"	"242820"	"233795"	"175062"	"175065"	NA	"239434"	NA	NA	"2506"	"2504"	"2506"	"216028"	"lineup1"	"no"	"6"	"no"	"1366"
"89"	""	"white"	"no"	"xpyriment"	"legacy"	"legacy"	"0"	"no"	"relative"	"1"	"1"	"1"	"1"	"1"	"11"	"11"	"1"	"1"	"1"	"11"	"0"	"0"	"0"	"1"	"11"	"1"	"1"	"11"	"1"	"1"	"1"	"11"	"17"	"1"	"1"	"1"	"1"	"1"	"1"	"1"	"0"	"0"	"0"	"11"	"02/21/18 14:44:48"	"Executes Python code"	"yes"	""	"lineup_videoVIPER_W.osexp"	"C:/Users/standalone/Desktop/Wed 21-02"	"no"	"mono"	"no"	"24"	"no"	"black"	"no"	"yes"	"female"	"768"	"No"	"No"	"no"	"No"	"legacy"	"5"	"0"	"C:/Users/standalone/Desktop/Wed 21-02/subject-84.csv"	"[member6]"	"1"	"4"	"3"	"7"	"5"	"2"	"xpyriment"	"Jazzy James"	"3.1.6"	"0"	"2"	"legacy"	"1024"	"2"	"48000"	"-16"	"experiment"	"84"	"even"	"legacy"	"[target2]"	"present"	"absent"	"175065"	"2574"	"236318"	"175065"	"2574"	NA	"233745"	"236318"	NA	"242820"	NA	"242886"	"2504"	"2568"	"175062"	"231702"	NA	NA	"175352"	"175126"	"175096"	"175125"	"216028"	"245475"	"233795"	"175062"	"175065"	NA	"239434"	NA	NA	"2506"	"2504"	"2506"	"216028"	"lineup1"	"no"	"6"	"no"	"1366"
"90"	""	"white"	"no"	"xpyriment"	"legacy"	"legacy"	"0"	NA	"relative"	NA	NA	NA	NA	NA	NA	NA	NA	NA	NA	NA	"0"	"0"	"0"	NA	NA	NA	NA	NA	NA	NA	NA	NA	"1"	NA	NA	NA	NA	NA	NA	NA	"0"	"0"	"0"	NA	"02/21/18 14:37:24"	"Executes Python code"	"yes"	""	"lineup_videoVIPER_W.osexp"	"C:/Users/standalone/Desktop/Wed 21-02"	"no"	"mono"	"no"	"24"	"no"	"black"	"no"	"yes"	NA	"768"	NA	NA	NA	NA	"legacy"	"0"	"0"	"C:/Users/standalone/Desktop/Wed 21-02/subject-85.csv"	NA	NA	NA	NA	NA	NA	NA	"xpyriment"	"Jazzy James"	"3.1.6"	"0"	"2"	"legacy"	"1024"	"2"	"48000"	"-16"	"experiment"	"85"	"odd"	"legacy"	NA	"absent"	"present"	NA	NA	NA	NA	NA	NA	NA	NA	NA	NA	NA	NA	"2477"	NA	NA	NA	NA	NA	NA	NA	NA	NA	NA	"2479"	NA	NA	NA	NA	NA	NA	NA	"2479"	"2477"	"2479"	NA	"lineup1"	"no"	NA	"no"	"1366"
"91"	""	"white"	"no"	"xpyriment"	"legacy"	"legacy"	"0"	NA	"relative"	"0"	"0"	NA	"0"	"0"	NA	NA	NA	NA	NA	NA	"0"	"0"	"0"	"0"	NA	NA	NA	NA	NA	"0"	NA	NA	"2"	NA	"0"	"0"	NA	NA	NA	NA	"0"	"0"	"0"	NA	"02/21/18 14:37:24"	"Executes Python code"	"yes"	""	"lineup_videoVIPER_W.osexp"	"C:/Users/standalone/Desktop/Wed 21-02"	"no"	"mono"	"no"	"24"	"no"	"black"	"no"	"yes"	"male"	"768"	NA	NA	NA	NA	"legacy"	"0"	"0"	"C:/Users/standalone/Desktop/Wed 21-02/subject-85.csv"	NA	"3"	"5"	"1"	"7"	"2"	"4"	"xpyriment"	"Jazzy James"	"3.1.6"	"0"	"2"	"legacy"	"1024"	"2"	"48000"	"-16"	"experiment"	"85"	"odd"	"legacy"	"[target1]"	"absent"	"present"	"2541"	NA	NA	"2541"	NA	NA	NA	NA	NA	NA	NA	NA	"2477"	"2535"	"2539"	NA	NA	NA	NA	NA	NA	NA	NA	"2541"	NA	"2539"	"2541"	NA	NA	NA	NA	"2479"	"2477"	"2479"	NA	"lineup1"	"no"	NA	"no"	"1366"
"92"	""	"white"	"no"	"xpyriment"	"legacy"	"legacy"	"0"	"no"	"relative"	"0"	"0"	"0"	"0"	"0"	"0"	"0"	"0"	"0"	"0"	"0"	"0"	"0"	"0"	"0"	"0"	"0"	"0"	"0"	"0"	"0"	"0"	"0"	"4"	"0"	"0"	"0"	"0"	"0"	"0"	"0"	"0"	"0"	"0"	"0"	"02/21/18 14:37:24"	"Executes Python code"	"yes"	""	"lineup_videoVIPER_W.osexp"	"C:/Users/standalone/Desktop/Wed 21-02"	"no"	"mono"	"no"	"24"	"no"	"black"	"no"	"yes"	"male"	"768"	"No"	"no"	"no"	"no"	"legacy"	"0"	"0"	"C:/Users/standalone/Desktop/Wed 21-02/subject-85.csv"	"[member1]"	"3"	"5"	"1"	"7"	"2"	"4"	"xpyriment"	"Jazzy James"	"3.1.6"	"0"	"2"	"legacy"	"1024"	"2"	"48000"	"-16"	"experiment"	"85"	"odd"	"legacy"	"[target1]"	"absent"	"present"	"2541"	NA	NA	"2541"	NA	NA	"77462"	NA	NA	NA	NA	NA	"2477"	"2535"	"2539"	"73030"	NA	NA	"2985"	"2609"	"2578"	"2609"	"2985"	"77462"	NA	"2539"	"2541"	NA	NA	NA	NA	"2479"	"2477"	"2479"	"38551"	"lineup1"	"no"	"1"	"no"	"1366"
"93"	""	"white"	"no"	"xpyriment"	"legacy"	"legacy"	"0"	"no"	"relative"	"0"	"0"	"0"	"0"	"0"	"1"	"1"	"0"	"0"	"0"	"1"	"0"	"0"	"0"	"0"	"1"	"0"	"0"	"1"	"0"	"0"	"0"	"1"	"5"	"0"	"0"	"0"	"0"	"0"	"0"	"0"	"0"	"0"	"0"	"1"	"02/21/18 14:37:24"	"Executes Python code"	"yes"	""	"lineup_videoVIPER_W.osexp"	"C:/Users/standalone/Desktop/Wed 21-02"	"no"	"mono"	"no"	"24"	"no"	"black"	"no"	"yes"	"male"	"768"	"Not sure"	"no"	"no"	"no"	"legacy"	"1"	"0"	"C:/Users/standalone/Desktop/Wed 21-02/subject-85.csv"	"[member2]"	"3"	"5"	"1"	"7"	"2"	"4"	"xpyriment"	"Jazzy James"	"3.1.6"	"0"	"2"	"legacy"	"1024"	"2"	"48000"	"-16"	"experiment"	"85"	"odd"	"legacy"	"[target1]"	"absent"	"present"	"2541"	NA	NA	"2541"	NA	NA	"95352"	NA	NA	NA	NA	NA	"2477"	"2535"	"2539"	"92701"	NA	NA	"2985"	"2609"	"2578"	"2609"	"77724"	"95352"	NA	"2539"	"2541"	NA	NA	NA	NA	"2479"	"2477"	"2479"	"77724"	"lineup1"	"no"	"2"	"no"	"1366"
"94"	""	"white"	"no"	"xpyriment"	"legacy"	"legacy"	"0"	"no"	"relative"	"0"	"0"	"0"	"0"	"0"	"2"	"2"	"0"	"0"	"0"	"2"	"0"	"0"	"0"	"0"	"2"	"0"	"0"	"2"	"0"	"0"	"0"	"2"	"6"	"0"	"0"	"0"	"0"	"0"	"0"	"0"	"0"	"0"	"0"	"2"	"02/21/18 14:37:24"	"Executes Python code"	"yes"	""	"lineup_videoVIPER_W.osexp"	"C:/Users/standalone/Desktop/Wed 21-02"	"no"	"mono"	"no"	"24"	"no"	"black"	"no"	"yes"	"male"	"768"	"No"	"no"	"no"	"no"	"legacy"	"2"	"0"	"C:/Users/standalone/Desktop/Wed 21-02/subject-85.csv"	"[member3]"	"3"	"5"	"1"	"7"	"2"	"4"	"xpyriment"	"Jazzy James"	"3.1.6"	"0"	"2"	"legacy"	"1024"	"2"	"48000"	"-16"	"experiment"	"85"	"odd"	"legacy"	"[target1]"	"absent"	"present"	"2541"	NA	NA	"2541"	NA	NA	"112333"	NA	NA	NA	NA	NA	"2477"	"2535"	"2539"	"109457"	NA	NA	"2985"	"2609"	"2578"	"2609"	"95619"	"112333"	NA	"2539"	"2541"	NA	NA	NA	NA	"2479"	"2477"	"2479"	"95619"	"lineup1"	"no"	"3"	"no"	"1366"
"95"	""	"white"	"no"	"xpyriment"	"legacy"	"legacy"	"0"	"no"	"relative"	"0"	"0"	"0"	"0"	"0"	"3"	"3"	"0"	"0"	"0"	"3"	"0"	"0"	"0"	"0"	"3"	"0"	"0"	"3"	"0"	"0"	"0"	"3"	"7"	"0"	"0"	"0"	"0"	"0"	"0"	"0"	"0"	"0"	"0"	"3"	"02/21/18 14:37:24"	"Executes Python code"	"yes"	""	"lineup_videoVIPER_W.osexp"	"C:/Users/standalone/Desktop/Wed 21-02"	"no"	"mono"	"no"	"24"	"no"	"black"	"no"	"yes"	"male"	"768"	"No"	"no"	"no"	"no"	"legacy"	"3"	"0"	"C:/Users/standalone/Desktop/Wed 21-02/subject-85.csv"	"[member4]"	"3"	"5"	"1"	"7"	"2"	"4"	"xpyriment"	"Jazzy James"	"3.1.6"	"0"	"2"	"legacy"	"1024"	"2"	"48000"	"-16"	"experiment"	"85"	"odd"	"legacy"	"[target1]"	"absent"	"present"	"2541"	NA	NA	"2541"	NA	NA	"120877"	NA	NA	NA	NA	NA	"2477"	"2535"	"2539"	"118808"	NA	NA	"2985"	"2609"	"2578"	"2609"	"112633"	"120877"	NA	"2539"	"2541"	NA	NA	NA	NA	"2479"	"2477"	"2479"	"112633"	"lineup1"	"no"	"4"	"no"	"1366"
"96"	""	"white"	"no"	"xpyriment"	"legacy"	"legacy"	"0"	"no"	"relative"	"0"	"0"	"0"	"0"	"0"	"4"	"4"	"0"	"0"	"0"	"4"	"0"	"0"	"0"	"0"	"4"	"0"	"0"	"4"	"0"	"0"	"0"	"4"	"8"	"0"	"0"	"0"	"0"	"0"	"0"	"0"	"0"	"0"	"0"	"4"	"02/21/18 14:37:24"	"Executes Python code"	"yes"	""	"lineup_videoVIPER_W.osexp"	"C:/Users/standalone/Desktop/Wed 21-02"	"no"	"mono"	"no"	"24"	"no"	"black"	"no"	"yes"	"male"	"768"	"No"	"no"	"no"	"no"	"legacy"	"4"	"0"	"C:/Users/standalone/Desktop/Wed 21-02/subject-85.csv"	"[member5]"	"3"	"5"	"1"	"7"	"2"	"4"	"xpyriment"	"Jazzy James"	"3.1.6"	"0"	"2"	"legacy"	"1024"	"2"	"48000"	"-16"	"experiment"	"85"	"odd"	"legacy"	"[target1]"	"absent"	"present"	"2541"	NA	NA	"2541"	NA	NA	"132883"	NA	NA	NA	NA	NA	"2477"	"2535"	"2539"	"130416"	NA	NA	"2985"	"2609"	"2578"	"2609"	"121172"	"132884"	NA	"2539"	"2541"	NA	NA	NA	NA	"2479"	"2477"	"2479"	"121172"	"lineup1"	"no"	"5"	"no"	"1366"
"97"	""	"white"	"no"	"xpyriment"	"legacy"	"legacy"	"0"	"no"	"relative"	"0"	"0"	"0"	"0"	"0"	"5"	"5"	"0"	"0"	"0"	"5"	"0"	"0"	"0"	"0"	"5"	"0"	"0"	"5"	"0"	"0"	"0"	"5"	"9"	"0"	"0"	"0"	"0"	"0"	"0"	"0"	"0"	"0"	"0"	"5"	"02/21/18 14:37:24"	"Executes Python code"	"yes"	""	"lineup_videoVIPER_W.osexp"	"C:/Users/standalone/Desktop/Wed 21-02"	"no"	"mono"	"no"	"24"	"no"	"black"	"no"	"yes"	"male"	"768"	"No"	"no"	"no"	"no"	"legacy"	"5"	"0"	"C:/Users/standalone/Desktop/Wed 21-02/subject-85.csv"	"[member6]"	"3"	"5"	"1"	"7"	"2"	"4"	"xpyriment"	"Jazzy James"	"3.1.6"	"0"	"2"	"legacy"	"1024"	"2"	"48000"	"-16"	"experiment"	"85"	"odd"	"legacy"	"[target1]"	"absent"	"present"	"2541"	NA	NA	"2541"	NA	NA	"139903"	NA	NA	NA	NA	NA	"2477"	"2535"	"2539"	"137437"	NA	NA	"2985"	"2609"	"2578"	"2609"	"133232"	"139903"	NA	"2539"	"2541"	NA	NA	NA	NA	"2479"	"2477"	"2479"	"133232"	"lineup1"	"no"	"6"	"no"	"1366"
"98"	""	"white"	"no"	"xpyriment"	"legacy"	"legacy"	"0"	"no"	"relative"	"0"	"0"	"0"	"0"	"0"	"5"	"5"	"0"	"0"	"0"	"5"	"0"	"0"	"0"	"0"	"5"	"0"	"0"	"5"	"0"	"0"	"0"	"5"	"9"	"0"	"0"	"0"	"0"	"0"	"0"	"0"	"0"	"0"	"0"	"5"	"02/21/18 14:37:24"	"Executes Python code"	"yes"	""	"lineup_videoVIPER_W.osexp"	"C:/Users/standalone/Desktop/Wed 21-02"	"no"	"mono"	"no"	"24"	"no"	"black"	"no"	"yes"	"male"	"768"	"No"	"No"	"no"	"No"	"legacy"	"5"	"0"	"C:/Users/standalone/Desktop/Wed 21-02/subject-85.csv"	"[member6]"	"3"	"5"	"1"	"7"	"2"	"4"	"xpyriment"	"Jazzy James"	"3.1.6"	"0"	"2"	"legacy"	"1024"	"2"	"48000"	"-16"	"experiment"	"85"	"odd"	"legacy"	"[target1]"	"absent"	"present"	"2541"	NA	"148885"	"2541"	NA	NA	"139903"	"148885"	NA	"157858"	NA	NA	"2477"	"2535"	"2539"	"137437"	NA	NA	"2985"	"2609"	"2578"	"2609"	"133232"	"157858"	"139942"	"2539"	"2541"	NA	"152413"	NA	NA	"2479"	"2477"	"2479"	"133232"	"lineup1"	"no"	"6"	"no"	"1366"
"99"	""	"white"	"no"	"xpyriment"	"legacy"	"legacy"	"0"	"no"	"relative"	"1"	"1"	"0"	"1"	"1"	"5"	"5"	"0"	"0"	"0"	"5"	"0"	"0"	"0"	"1"	"5"	"0"	"0"	"5"	"0"	"1"	"0"	"5"	"10"	"0"	"1"	"1"	"0"	"0"	"0"	"0"	"0"	"0"	"0"	"5"	"02/21/18 14:37:24"	"Executes Python code"	"yes"	""	"lineup_videoVIPER_W.osexp"	"C:/Users/standalone/Desktop/Wed 21-02"	"no"	"mono"	"no"	"24"	"no"	"black"	"no"	"yes"	"female"	"768"	"No"	"No"	"no"	"No"	"legacy"	"0"	"0"	"C:/Users/standalone/Desktop/Wed 21-02/subject-85.csv"	"[member6]"	"5"	"2"	"1"	"4"	"6"	"3"	"xpyriment"	"Jazzy James"	"3.1.6"	"0"	"2"	"legacy"	"1024"	"2"	"48000"	"-16"	"experiment"	"85"	"odd"	"legacy"	"[target2]"	"absent"	"present"	"2541"	"157941"	"148885"	"2541"	"157941"	NA	"139903"	"148885"	NA	"157858"	NA	NA	"2477"	"2535"	"157938"	"137437"	NA	NA	"2985"	"2609"	"2578"	"2609"	"133232"	"157941"	"139942"	"157938"	"157941"	NA	"152413"	NA	NA	"2479"	"2477"	"2479"	"133232"	"lineup1"	"no"	"6"	"no"	"1366"
"100"	""	"white"	"no"	"xpyriment"	"legacy"	"legacy"	"0"	"no"	"relative"	"1"	"1"	"1"	"1"	"1"	"6"	"6"	"1"	"1"	"1"	"6"	"0"	"0"	"0"	"1"	"6"	"1"	"1"	"6"	"1"	"1"	"1"	"6"	"12"	"1"	"1"	"1"	"1"	"1"	"1"	"1"	"0"	"0"	"0"	"6"	"02/21/18 14:37:24"	"Executes Python code"	"yes"	""	"lineup_videoVIPER_W.osexp"	"C:/Users/standalone/Desktop/Wed 21-02"	"no"	"mono"	"no"	"24"	"no"	"black"	"no"	"yes"	"female"	"768"	"No"	"no"	"no"	"no"	"legacy"	"0"	"0"	"C:/Users/standalone/Desktop/Wed 21-02/subject-85.csv"	"[member1]"	"5"	"2"	"1"	"4"	"6"	"3"	"xpyriment"	"Jazzy James"	"3.1.6"	"0"	"2"	"legacy"	"1024"	"2"	"48000"	"-16"	"experiment"	"85"	"odd"	"legacy"	"[target2]"	"absent"	"present"	"2541"	"157941"	"148885"	"2541"	"157941"	NA	"172380"	"148885"	NA	"157858"	NA	NA	"2477"	"2535"	"157938"	"170110"	NA	NA	"158237"	"158000"	"157970"	"158000"	"158237"	"172380"	"139942"	"157938"	"157941"	NA	"152413"	NA	NA	"2479"	"2477"	"2479"	"161412"	"lineup1"	"no"	"1"	"no"	"1366"
"101"	""	"white"	"no"	"xpyriment"	"legacy"	"legacy"	"0"	"60"	"relative"	"1"	"1"	"1"	"1"	"1"	"7"	"7"	"1"	"1"	"1"	"7"	"0"	"0"	"0"	"1"	"7"	"1"	"1"	"7"	"1"	"1"	"1"	"7"	"13"	"1"	"1"	"1"	"1"	"1"	"1"	"1"	"0"	"0"	"0"	"7"	"02/21/18 14:37:24"	"Executes Python code"	"yes"	""	"lineup_videoVIPER_W.osexp"	"C:/Users/standalone/Desktop/Wed 21-02"	"no"	"mono"	"no"	"24"	"no"	"black"	"no"	"yes"	"female"	"768"	"Yes"	"no"	"no"	"no"	"legacy"	"1"	"0"	"C:/Users/standalone/Desktop/Wed 21-02/subject-85.csv"	"[member2]"	"5"	"2"	"1"	"4"	"6"	"3"	"xpyriment"	"Jazzy James"	"3.1.6"	"0"	"2"	"legacy"	"1024"	"2"	"48000"	"-16"	"experiment"	"85"	"odd"	"legacy"	"[target2]"	"absent"	"present"	"2541"	"157941"	"148885"	"2541"	"157941"	"204731"	"198426"	"148885"	NA	"157858"	"198426"	NA	"2477"	"2535"	"157938"	"184070"	NA	NA	"158237"	"158000"	"157970"	"158000"	"172652"	"204731"	"139942"	"157938"	"157941"	NA	"152413"	NA	NA	"2479"	"2477"	"2479"	"172652"	"lineup1"	"no"	"2"	"no"	"1366"
"102"	""	"white"	"no"	"xpyriment"	"legacy"	"legacy"	"0"	"no"	"relative"	"1"	"1"	"1"	"1"	"1"	"8"	"8"	"1"	"1"	"1"	"8"	"0"	"0"	"0"	"1"	"8"	"1"	"1"	"8"	"1"	"1"	"1"	"8"	"14"	"1"	"1"	"1"	"1"	"1"	"1"	"1"	"0"	"0"	"0"	"8"	"02/21/18 14:37:24"	"Executes Python code"	"yes"	""	"lineup_videoVIPER_W.osexp"	"C:/Users/standalone/Desktop/Wed 21-02"	"no"	"mono"	"no"	"24"	"no"	"black"	"no"	"yes"	"female"	"768"	"No"	"no"	"no"	"no"	"legacy"	"2"	"0"	"C:/Users/standalone/Desktop/Wed 21-02/subject-85.csv"	"[member3]"	"5"	"2"	"1"	"4"	"6"	"3"	"xpyriment"	"Jazzy James"	"3.1.6"	"0"	"2"	"legacy"	"1024"	"2"	"48000"	"-16"	"experiment"	"85"	"odd"	"legacy"	"[target2]"	"absent"	"present"	"2541"	"157941"	"148885"	"2541"	"157941"	"204731"	"210321"	"148885"	NA	"157858"	"198426"	NA	"2477"	"2535"	"157938"	"208302"	NA	NA	"158237"	"158000"	"157970"	"158000"	"205025"	"210322"	"139942"	"157938"	"157941"	NA	"152413"	NA	NA	"2479"	"2477"	"2479"	"205025"	"lineup1"	"no"	"3"	"no"	"1366"
"103"	""	"white"	"no"	"xpyriment"	"legacy"	"legacy"	"0"	"no"	"relative"	"1"	"1"	"1"	"1"	"1"	"9"	"9"	"1"	"1"	"1"	"9"	"0"	"0"	"0"	"1"	"9"	"1"	"1"	"9"	"1"	"1"	"1"	"9"	"15"	"1"	"1"	"1"	"1"	"1"	"1"	"1"	"0"	"0"	"0"	"9"	"02/21/18 14:37:24"	"Executes Python code"	"yes"	""	"lineup_videoVIPER_W.osexp"	"C:/Users/standalone/Desktop/Wed 21-02"	"no"	"mono"	"no"	"24"	"no"	"black"	"no"	"yes"	"female"	"768"	"Not sure"	"no"	"no"	"no"	"legacy"	"3"	"0"	"C:/Users/standalone/Desktop/Wed 21-02/subject-85.csv"	"[member4]"	"5"	"2"	"1"	"4"	"6"	"3"	"xpyriment"	"Jazzy James"	"3.1.6"	"0"	"2"	"legacy"	"1024"	"2"	"48000"	"-16"	"experiment"	"85"	"odd"	"legacy"	"[target2]"	"absent"	"present"	"2541"	"157941"	"148885"	"2541"	"157941"	"204731"	"222515"	"148885"	NA	"157858"	"198426"	NA	"2477"	"2535"	"157938"	"220044"	NA	NA	"158237"	"158000"	"157970"	"158000"	"210583"	"222515"	"139942"	"157938"	"157941"	NA	"152413"	NA	NA	"2479"	"2477"	"2479"	"210583"	"lineup1"	"no"	"4"	"no"	"1366"
"104"	""	"white"	"no"	"xpyriment"	"legacy"	"legacy"	"0"	"no"	"relative"	"1"	"1"	"1"	"1"	"1"	"10"	"10"	"1"	"1"	"1"	"10"	"0"	"0"	"0"	"1"	"10"	"1"	"1"	"10"	"1"	"1"	"1"	"10"	"16"	"1"	"1"	"1"	"1"	"1"	"1"	"1"	"0"	"0"	"0"	"10"	"02/21/18 14:37:24"	"Executes Python code"	"yes"	""	"lineup_videoVIPER_W.osexp"	"C:/Users/standalone/Desktop/Wed 21-02"	"no"	"mono"	"no"	"24"	"no"	"black"	"no"	"yes"	"female"	"768"	"No"	"no"	"no"	"no"	"legacy"	"4"	"0"	"C:/Users/standalone/Desktop/Wed 21-02/subject-85.csv"	"[member5]"	"5"	"2"	"1"	"4"	"6"	"3"	"xpyriment"	"Jazzy James"	"3.1.6"	"0"	"2"	"legacy"	"1024"	"2"	"48000"	"-16"	"experiment"	"85"	"odd"	"legacy"	"[target2]"	"absent"	"present"	"2541"	"157941"	"148885"	"2541"	"157941"	"204731"	"228020"	"148885"	NA	"157858"	"198426"	NA	"2477"	"2535"	"157938"	"226001"	NA	NA	"158237"	"158000"	"157970"	"158000"	"222784"	"228020"	"139942"	"157938"	"157941"	NA	"152413"	NA	NA	"2479"	"2477"	"2479"	"222784"	"lineup1"	"no"	"5"	"no"	"1366"
"105"	""	"white"	"no"	"xpyriment"	"legacy"	"legacy"	"0"	"no"	"relative"	"1"	"1"	"1"	"1"	"1"	"11"	"11"	"1"	"1"	"1"	"11"	"0"	"0"	"0"	"1"	"11"	"1"	"1"	"11"	"1"	"1"	"1"	"11"	"17"	"1"	"1"	"1"	"1"	"1"	"1"	"1"	"0"	"0"	"0"	"11"	"02/21/18 14:37:24"	"Executes Python code"	"yes"	""	"lineup_videoVIPER_W.osexp"	"C:/Users/standalone/Desktop/Wed 21-02"	"no"	"mono"	"no"	"24"	"no"	"black"	"no"	"yes"	"female"	"768"	"No"	"no"	"no"	"no"	"legacy"	"5"	"0"	"C:/Users/standalone/Desktop/Wed 21-02/subject-85.csv"	"[member6]"	"5"	"2"	"1"	"4"	"6"	"3"	"xpyriment"	"Jazzy James"	"3.1.6"	"0"	"2"	"legacy"	"1024"	"2"	"48000"	"-16"	"experiment"	"85"	"odd"	"legacy"	"[target2]"	"absent"	"present"	"2541"	"157941"	"148885"	"2541"	"157941"	"204731"	"238362"	"148885"	NA	"157858"	"198426"	NA	"2477"	"2535"	"157938"	"235680"	NA	NA	"158237"	"158000"	"157970"	"158000"	"228300"	"238362"	"139942"	"157938"	"157941"	NA	"152413"	NA	NA	"2479"	"2477"	"2479"	"228300"	"lineup1"	"no"	"6"	"no"	"1366"
