"_prepare","background","bidi","canvas_backend","clock_backend","color_backend","compensation","confidence_immediate","coordinates","count_TA_sequence_setting","count_TP_sequence_setting","count_admin_check","count_check_TA","count_check_TP","count_check_confidence_imm","count_check_identification","count_check_made_identification","count_check_multiple_identification","count_check_proceeding_identification","count_confidence_imm","count_end_of_experiment","count_experiment","count_gender_lineup_loop","count_gender_randomization_sequence","count_identification_task","count_instructions_after_multiple","count_instructions_after_proceed_identification","count_instructions_before_view","count_lineup_loop","count_lineup_procedure_loop","count_lineup_procedure_sequence","count_lineup_sequence","count_logger","count_made_identification","count_member_randomization_loop","count_member_randomization_sequence","count_multiple_identification","count_proceed_identification","count_repeat_lineup_sequence_identification","count_repeat_lineup_sequence_multiple","count_target_setting","count_target_setting_loop","count_target_setting_sequence","count_video","datetime","description","disable_garbage_collection","empty_column","experiment_file","experiment_path","font_bold","font_family","font_italic","font_size","font_underline","foreground","form_clicks","fullscreen","gender","height","identification","identification_made","identification_multiple","identification_proceed","keyboard_backend","live_row","live_row_target_setting_loop","logfile","member","member1","member2","member3","member4","member5","member6","mouse_backend","opensesame_codename","opensesame_version","repeat_cycle","round_decimals","sampler_backend","sound_buf_size","sound_channels","sound_freq","sound_sample_size","start","subject_nr","subject_parity","synth_backend","target","target1","target2","time_TA_sequence_setting","time_TP_sequence_setting","time_admin_check","time_check_TA","time_check_TP","time_check_confidence_imm","time_check_identification","time_check_made_identification","time_check_multiple_identification","time_check_proceeding_identification","time_confidence_imm","time_end_of_experiment","time_experiment","time_gender_lineup_loop","time_gender_randomization_sequence","time_identification_task","time_instructions_after_multiple","time_instructions_after_proceed_identification","time_instructions_before_view","time_lineup_loop","time_lineup_procedure_loop","time_lineup_procedure_sequence","time_lineup_sequence","time_logger","time_made_identification","time_member_randomization_loop","time_member_randomization_sequence","time_multiple_identification","time_proceed_identification","time_repeat_lineup_sequence_identification","time_repeat_lineup_sequence_multiple","time_target_setting","time_target_setting_loop","time_target_setting_sequence","time_video","title","transparent_variables","trial","uniform_coordinates","width"
"","white","no","xpyriment","legacy","legacy","0","NA","relative","NA","NA","NA","NA","NA","NA","NA","NA","NA","NA","NA","0","0","0","NA","NA","NA","NA","NA","NA","NA","NA","NA","1","NA","NA","NA","NA","NA","NA","NA","0","0","0","NA","03/21/18 14:45:13","Executes Python code","yes","","lineup_videoFB_W.osexp","C:/Users/standalone/Desktop/FB 21 Mar 1.23","no","mono","no","24","no","black","no","yes","NA","768","NA","NA","NA","NA","legacy","0","0","C:/Users/standalone/Desktop/FB 21 Mar 1.23/subject-94.csv","NA","NA","NA","NA","NA","NA","NA","xpyriment","Jazzy James","3.1.6","0","2","legacy","1024","2","48000","-16","experiment","94","even","legacy","NA","absent","present","NA","NA","NA","NA","NA","NA","NA","NA","NA","NA","NA","NA","2310","NA","NA","NA","NA","NA","NA","NA","NA","NA","NA","2311","NA","NA","NA","NA","NA","NA","NA","2311","2310","2311","NA","lineup1","no","NA","no","1366"
"","white","no","xpyriment","legacy","legacy","0","NA","relative","1","1","NA","1","1","NA","NA","NA","NA","NA","NA","0","0","0","0","NA","NA","NA","NA","NA","0","NA","NA","3","NA","0","1","NA","NA","NA","NA","0","0","0","NA","03/21/18 14:45:13","Executes Python code","yes","","lineup_videoFB_W.osexp","C:/Users/standalone/Desktop/FB 21 Mar 1.23","no","mono","no","24","no","black","no","yes","female","768","NA","NA","NA","NA","legacy","0","0","C:/Users/standalone/Desktop/FB 21 Mar 1.23/subject-94.csv","NA","3","5","4","1","6","2","xpyriment","Jazzy James","3.1.6","0","2","legacy","1024","2","48000","-16","experiment","94","even","legacy","[target2]","absent","present","NA","2390","NA","NA","2390","NA","NA","NA","NA","NA","NA","NA","2310","2383","2386","NA","NA","NA","NA","NA","NA","NA","NA","2391","NA","2386","2390","NA","NA","NA","NA","2311","2310","2311","NA","lineup1","no","NA","no","1366"
"","white","no","xpyriment","legacy","legacy","0","NA","relative","1","1","NA","1","1","NA","NA","NA","NA","NA","NA","0","0","0","0","NA","NA","NA","NA","NA","0","NA","NA","3","NA","0","1","NA","NA","NA","NA","0","0","0","NA","03/21/18 14:45:13","Executes Python code","yes","","lineup_videoFB_W.osexp","C:/Users/standalone/Desktop/FB 21 Mar 1.23","no","mono","no","24","no","black","no","yes","female","768","NA","NA","NA","NA","legacy","0","0","C:/Users/standalone/Desktop/FB 21 Mar 1.23/subject-94.csv","NA","3","5","4","1","6","2","xpyriment","Jazzy James","3.1.6","0","2","legacy","1024","2","48000","-16","experiment","94","even","legacy","[target2]","absent","present","NA","2390","NA","NA","2390","NA","NA","NA","NA","NA","NA","NA","2310","2383","2386","NA","NA","NA","NA","NA","NA","NA","NA","2443","NA","2386","2390","NA","NA","NA","NA","2311","2310","2311","NA","lineup1","no","NA","no","1366"
"","white","no","xpyriment","legacy","legacy","0","no","relative","1","1","0","1","1","0","0","0","0","0","0","0","0","0","0","0","0","0","0","0","0","0","0","5","0","0","1","0","0","0","0","0","0","0","0","03/21/18 14:45:13","Executes Python code","yes","","lineup_videoFB_W.osexp","C:/Users/standalone/Desktop/FB 21 Mar 1.23","no","mono","no","24","no","black","no","yes","female","768","No","no","no","no","legacy","0","0","C:/Users/standalone/Desktop/FB 21 Mar 1.23/subject-94.csv","[member1]","3","5","4","1","6","2","xpyriment","Jazzy James","3.1.6","0","2","legacy","1024","2","48000","-16","experiment","94","even","legacy","[target2]","absent","present","NA","2390","NA","NA","2390","NA","80698","NA","NA","NA","NA","NA","2310","2383","2386","76741","NA","NA","3682","2511","2483","2511","3682","80698","NA","2386","2390","NA","NA","NA","NA","2311","2310","2311","50605","lineup1","no","1","no","1366"
"","white","no","xpyriment","legacy","legacy","0","no","relative","1","1","0","1","1","1","1","0","0","0","1","0","0","0","0","1","0","0","1","0","0","0","1","6","0","0","1","0","0","0","0","0","0","0","1","03/21/18 14:45:13","Executes Python code","yes","","lineup_videoFB_W.osexp","C:/Users/standalone/Desktop/FB 21 Mar 1.23","no","mono","no","24","no","black","no","yes","female","768","No","no","no","no","legacy","1","0","C:/Users/standalone/Desktop/FB 21 Mar 1.23/subject-94.csv","[member2]","3","5","4","1","6","2","xpyriment","Jazzy James","3.1.6","0","2","legacy","1024","2","48000","-16","experiment","94","even","legacy","[target2]","absent","present","NA","2390","NA","NA","2390","NA","116033","NA","NA","NA","NA","NA","2310","2383","2386","110279","NA","NA","3682","2511","2483","2511","81807","116033","NA","2386","2390","NA","NA","NA","NA","2311","2310","2311","81807","lineup1","no","2","no","1366"
"","white","no","xpyriment","legacy","legacy","0","no","relative","1","1","0","1","1","2","2","0","0","0","2","0","0","0","0","2","0","0","2","0","0","0","2","7","0","0","1","0","0","0","0","0","0","0","2","03/21/18 14:45:13","Executes Python code","yes","","lineup_videoFB_W.osexp","C:/Users/standalone/Desktop/FB 21 Mar 1.23","no","mono","no","24","no","black","no","yes","female","768","Not sure","no","no","no","legacy","2","0","C:/Users/standalone/Desktop/FB 21 Mar 1.23/subject-94.csv","[member3]","3","5","4","1","6","2","xpyriment","Jazzy James","3.1.6","0","2","legacy","1024","2","48000","-16","experiment","94","even","legacy","[target2]","absent","present","NA","2390","NA","NA","2390","NA","144716","NA","NA","NA","NA","NA","2310","2383","2386","141363","NA","NA","3682","2511","2483","2511","117189","144716","NA","2386","2390","NA","NA","NA","NA","2311","2310","2311","117189","lineup1","no","3","no","1366"
"","white","no","xpyriment","legacy","legacy","0","no","relative","1","1","0","1","1","3","3","0","0","0","3","0","0","0","0","3","0","0","3","0","0","0","3","8","0","0","1","0","0","0","0","0","0","0","3","03/21/18 14:45:13","Executes Python code","yes","","lineup_videoFB_W.osexp","C:/Users/standalone/Desktop/FB 21 Mar 1.23","no","mono","no","24","no","black","no","yes","female","768","Not sure","no","no","no","legacy","3","0","C:/Users/standalone/Desktop/FB 21 Mar 1.23/subject-94.csv","[member4]","3","5","4","1","6","2","xpyriment","Jazzy James","3.1.6","0","2","legacy","1024","2","48000","-16","experiment","94","even","legacy","[target2]","absent","present","NA","2390","NA","NA","2390","NA","161968","NA","NA","NA","NA","NA","2310","2383","2386","159643","NA","NA","3682","2511","2483","2511","145875","161968","NA","2386","2390","NA","NA","NA","NA","2311","2310","2311","145875","lineup1","no","4","no","1366"
"","white","no","xpyriment","legacy","legacy","0","no","relative","1","1","0","1","1","4","4","0","0","0","4","0","0","0","0","4","0","0","4","0","0","0","4","9","0","0","1","0","0","0","0","0","0","0","4","03/21/18 14:45:13","Executes Python code","yes","","lineup_videoFB_W.osexp","C:/Users/standalone/Desktop/FB 21 Mar 1.23","no","mono","no","24","no","black","no","yes","female","768","Not sure","no","no","no","legacy","4","0","C:/Users/standalone/Desktop/FB 21 Mar 1.23/subject-94.csv","[member5]","3","5","4","1","6","2","xpyriment","Jazzy James","3.1.6","0","2","legacy","1024","2","48000","-16","experiment","94","even","legacy","[target2]","absent","present","NA","2390","NA","NA","2390","NA","191539","NA","NA","NA","NA","NA","2310","2383","2386","186582","NA","NA","3682","2511","2483","2511","163040","191539","NA","2386","2390","NA","NA","NA","NA","2311","2310","2311","163040","lineup1","no","5","no","1366"
"","white","no","xpyriment","legacy","legacy","0","no","relative","1","1","0","1","1","5","5","0","0","0","5","0","0","0","0","5","0","0","5","0","0","0","5","10","0","0","1","0","0","0","0","0","0","0","5","03/21/18 14:45:13","Executes Python code","yes","","lineup_videoFB_W.osexp","C:/Users/standalone/Desktop/FB 21 Mar 1.23","no","mono","no","24","no","black","no","yes","female","768","No","no","no","no","legacy","5","0","C:/Users/standalone/Desktop/FB 21 Mar 1.23/subject-94.csv","[member6]","3","5","4","1","6","2","xpyriment","Jazzy James","3.1.6","0","2","legacy","1024","2","48000","-16","experiment","94","even","legacy","[target2]","absent","present","NA","2390","NA","NA","2390","NA","200410","NA","NA","NA","NA","NA","2310","2383","2386","197663","NA","NA","3682","2511","2483","2511","192681","200410","NA","2386","2390","NA","NA","NA","NA","2311","2310","2311","192681","lineup1","no","6","no","1366"
"","white","no","xpyriment","legacy","legacy","0","no","relative","1","1","0","1","1","5","5","0","0","0","5","0","0","0","0","5","0","0","5","0","0","0","5","10","0","0","1","0","0","0","0","0","0","0","5","03/21/18 14:45:13","Executes Python code","yes","","lineup_videoFB_W.osexp","C:/Users/standalone/Desktop/FB 21 Mar 1.23","no","mono","no","24","no","black","no","yes","female","768","No","No","no","No","legacy","5","0","C:/Users/standalone/Desktop/FB 21 Mar 1.23/subject-94.csv","[member6]","3","5","4","1","6","2","xpyriment","Jazzy James","3.1.6","0","2","legacy","1024","2","48000","-16","experiment","94","even","legacy","[target2]","absent","present","NA","2390","205717","NA","2390","NA","200410","205717","NA","220283","NA","NA","2310","2383","2386","197663","NA","NA","3682","2511","2483","2511","192681","220283","200457","2386","2390","NA","211433","NA","NA","2311","2310","2311","192681","lineup1","no","6","no","1366"
"","white","no","xpyriment","legacy","legacy","0","no","relative","2","2","0","2","2","5","5","0","0","0","5","0","0","0","1","5","0","0","5","0","1","0","5","11","0","1","2","0","0","0","0","0","0","0","5","03/21/18 14:45:13","Executes Python code","yes","","lineup_videoFB_W.osexp","C:/Users/standalone/Desktop/FB 21 Mar 1.23","no","mono","no","24","no","black","no","yes","male","768","No","No","no","No","legacy","0","0","C:/Users/standalone/Desktop/FB 21 Mar 1.23/subject-94.csv","[member6]","2","5","7","3","1","4","xpyriment","Jazzy James","3.1.6","0","2","legacy","1024","2","48000","-16","experiment","94","even","legacy","[target1]","absent","present","220364","2390","205717","220364","2390","NA","200410","205717","NA","220283","NA","NA","2310","2383","220361","197663","NA","NA","3682","2511","2483","2511","192681","220364","200457","220362","220364","NA","211433","NA","NA","2311","2310","2311","192681","lineup1","no","6","no","1366"
"","white","no","xpyriment","legacy","legacy","0","no","relative","2","2","1","2","2","6","6","1","1","1","6","0","0","0","1","6","1","1","6","1","1","1","6","13","1","1","2","1","1","1","1","0","0","0","6","03/21/18 14:45:13","Executes Python code","yes","","lineup_videoFB_W.osexp","C:/Users/standalone/Desktop/FB 21 Mar 1.23","no","mono","no","24","no","black","no","yes","male","768","No","no","no","no","legacy","0","0","C:/Users/standalone/Desktop/FB 21 Mar 1.23/subject-94.csv","[member1]","2","5","7","3","1","4","xpyriment","Jazzy James","3.1.6","0","2","legacy","1024","2","48000","-16","experiment","94","even","legacy","[target1]","absent","present","220364","2390","205717","220364","2390","NA","235373","205717","NA","220283","NA","NA","2310","2383","220361","232022","NA","NA","221434","220427","220399","220427","221434","235373","200457","220362","220364","NA","211433","NA","NA","2311","2310","2311","225609","lineup1","no","1","no","1366"
"","white","no","xpyriment","legacy","legacy","0","no","relative","2","2","1","2","2","7","7","1","1","1","7","0","0","0","1","7","1","1","7","1","1","1","7","14","1","1","2","1","1","1","1","0","0","0","7","03/21/18 14:45:13","Executes Python code","yes","","lineup_videoFB_W.osexp","C:/Users/standalone/Desktop/FB 21 Mar 1.23","no","mono","no","24","no","black","no","yes","male","768","Not sure","no","no","no","legacy","1","0","C:/Users/standalone/Desktop/FB 21 Mar 1.23/subject-94.csv","[member2]","2","5","7","3","1","4","xpyriment","Jazzy James","3.1.6","0","2","legacy","1024","2","48000","-16","experiment","94","even","legacy","[target1]","absent","present","220364","2390","205717","220364","2390","NA","255183","205717","NA","220283","NA","NA","2310","2383","220361","252855","NA","NA","221434","220427","220399","220427","236486","255183","200457","220362","220364","NA","211433","NA","NA","2311","2310","2311","236486","lineup1","no","2","no","1366"
"","white","no","xpyriment","legacy","legacy","0","no","relative","2","2","1","2","2","8","8","1","1","1","8","0","0","0","1","8","1","1","8","1","1","1","8","15","1","1","2","1","1","1","1","0","0","0","8","03/21/18 14:45:13","Executes Python code","yes","","lineup_videoFB_W.osexp","C:/Users/standalone/Desktop/FB 21 Mar 1.23","no","mono","no","24","no","black","no","yes","male","768","Not sure","no","no","no","legacy","2","0","C:/Users/standalone/Desktop/FB 21 Mar 1.23/subject-94.csv","[member3]","2","5","7","3","1","4","xpyriment","Jazzy James","3.1.6","0","2","legacy","1024","2","48000","-16","experiment","94","even","legacy","[target1]","absent","present","220364","2390","205717","220364","2390","NA","259594","205717","NA","220283","NA","NA","2310","2383","220361","257172","NA","NA","221434","220427","220399","220427","256294","259594","200457","220362","220364","NA","211433","NA","NA","2311","2310","2311","256295","lineup1","no","3","no","1366"
"","white","no","xpyriment","legacy","legacy","0","no","relative","2","2","1","2","2","9","9","1","1","1","9","0","0","0","1","9","1","1","9","1","1","1","9","16","1","1","2","1","1","1","1","0","0","0","9","03/21/18 14:45:13","Executes Python code","yes","","lineup_videoFB_W.osexp","C:/Users/standalone/Desktop/FB 21 Mar 1.23","no","mono","no","24","no","black","no","yes","male","768","Not sure","no","no","no","legacy","3","0","C:/Users/standalone/Desktop/FB 21 Mar 1.23/subject-94.csv","[member4]","2","5","7","3","1","4","xpyriment","Jazzy James","3.1.6","0","2","legacy","1024","2","48000","-16","experiment","94","even","legacy","[target1]","absent","present","220364","2390","205717","220364","2390","NA","274120","205717","NA","220283","NA","NA","2310","2383","220361","270981","NA","NA","221434","220427","220399","220427","260693","274120","200457","220362","220364","NA","211433","NA","NA","2311","2310","2311","260693","lineup1","no","4","no","1366"
"","white","no","xpyriment","legacy","legacy","0","60","relative","2","2","1","2","2","10","10","1","1","1","10","0","0","0","1","10","1","1","10","1","1","1","10","17","1","1","2","1","1","1","1","0","0","0","10","03/21/18 14:45:13","Executes Python code","yes","","lineup_videoFB_W.osexp","C:/Users/standalone/Desktop/FB 21 Mar 1.23","no","mono","no","24","no","black","no","yes","male","768","Yes","no","no","no","legacy","4","0","C:/Users/standalone/Desktop/FB 21 Mar 1.23/subject-94.csv","[member5]","2","5","7","3","1","4","xpyriment","Jazzy James","3.1.6","0","2","legacy","1024","2","48000","-16","experiment","94","even","legacy","[target1]","absent","present","220364","2390","205717","220364","2390","295451","289148","205717","NA","220283","289148","NA","2310","2383","220361","286614","NA","NA","221434","220427","220399","220427","275222","295451","200457","220362","220364","NA","211433","NA","NA","2311","2310","2311","275222","lineup1","no","5","no","1366"
"","white","no","xpyriment","legacy","legacy","0","no","relative","2","2","1","2","2","11","11","1","1","1","11","0","0","0","1","11","1","1","11","1","1","1","11","18","1","1","2","1","1","1","1","0","0","0","11","03/21/18 14:45:13","Executes Python code","yes","","lineup_videoFB_W.osexp","C:/Users/standalone/Desktop/FB 21 Mar 1.23","no","mono","no","24","no","black","no","yes","male","768","No","no","no","no","legacy","5","0","C:/Users/standalone/Desktop/FB 21 Mar 1.23/subject-94.csv","[member6]","2","5","7","3","1","4","xpyriment","Jazzy James","3.1.6","0","2","legacy","1024","2","48000","-16","experiment","94","even","legacy","[target1]","absent","present","220364","2390","205717","220364","2390","295451","302712","205717","NA","220283","289148","NA","2310","2383","220361","298260","NA","NA","221434","220427","220399","220427","296514","302712","200457","220362","220364","NA","211433","NA","NA","2311","2310","2311","296514","lineup1","no","6","no","1366"
"","white","no","xpyriment","legacy","legacy","0","no","relative","2","2","1","2","2","11","11","1","1","1","11","0","0","0","1","11","1","1","11","1","1","1","11","18","1","1","2","1","1","1","1","0","0","0","11","03/21/18 14:45:13","Executes Python code","yes","","lineup_videoFB_W.osexp","C:/Users/standalone/Desktop/FB 21 Mar 1.23","no","mono","no","24","no","black","no","yes","male","768","No","Yes","One","No","legacy","5","0","C:/Users/standalone/Desktop/FB 21 Mar 1.23/subject-94.csv","[member6]","2","5","7","3","1","4","xpyriment","Jazzy James","3.1.6","0","2","legacy","1024","2","48000","-16","experiment","94","even","legacy","[target1]","absent","present","220364","2390","310388","220364","2390","295451","302712","306162","310388","320327","289148","NA","2310","2383","220361","298260","NA","NA","221434","220427","220399","220427","296514","320327","302760","220362","220364","306162","314207","NA","NA","2311","2310","2311","296514","lineup1","no","6","no","1366"
"","white","no","xpyriment","legacy","legacy","0","no","relative","2","2","1","2","2","11","11","1","1","1","11","0","0","0","1","11","1","1","11","1","1","1","11","18","1","1","2","1","1","1","1","0","0","0","11","03/21/18 14:45:13","Executes Python code","yes","","lineup_videoFB_W.osexp","C:/Users/standalone/Desktop/FB 21 Mar 1.23","no","mono","no","24","no","black","no","yes","male","768","No","Yes","One","No","legacy","5","0","C:/Users/standalone/Desktop/FB 21 Mar 1.23/subject-94.csv","[member6]","2","5","7","3","1","4","xpyriment","Jazzy James","3.1.6","0","2","legacy","1024","2","48000","-16","experiment","94","even","legacy","[target1]","absent","present","220364","2390","310388","220364","2390","295451","302712","306162","310388","320327","289148","320394","2310","2383","220361","298260","NA","NA","221434","220427","220399","220427","296514","322206","302760","220362","220364","306162","314207","NA","NA","2311","2310","2311","296514","lineup1","no","6","no","1366"
