"_prepare","background","bidi","canvas_backend","clock_backend","color_backend","compensation","confidence_immediate","coordinates","count_TA_sequence_setting","count_TP_sequence_setting","count_admin_check","count_check_TA","count_check_TP","count_check_confidence_imm","count_check_identification","count_check_made_identification","count_check_multiple_identification","count_check_proceeding_identification","count_confidence_imm","count_end_of_experiment","count_experiment","count_gender_lineup_loop","count_gender_randomization_sequence","count_identification_task","count_instructions_after_multiple","count_instructions_after_proceed_identification","count_instructions_before_view","count_lineup_loop","count_lineup_procedure_loop","count_lineup_procedure_sequence","count_lineup_sequence","count_logger","count_made_identification","count_member_randomization_loop","count_member_randomization_sequence","count_multiple_identification","count_proceed_identification","count_repeat_lineup_sequence_identification","count_repeat_lineup_sequence_multiple","count_target_setting","count_target_setting_loop","count_target_setting_sequence","count_video","datetime","description","disable_garbage_collection","empty_column","experiment_file","experiment_path","font_bold","font_family","font_italic","font_size","font_underline","foreground","form_clicks","fullscreen","gender","height","identification","identification_made","identification_multiple","identification_proceed","keyboard_backend","live_row","live_row_target_setting_loop","logfile","member","member1","member2","member3","member4","member5","member6","mouse_backend","opensesame_codename","opensesame_version","repeat_cycle","round_decimals","sampler_backend","sound_buf_size","sound_channels","sound_freq","sound_sample_size","start","subject_nr","subject_parity","synth_backend","target","target1","target2","time_TA_sequence_setting","time_TP_sequence_setting","time_admin_check","time_check_TA","time_check_TP","time_check_confidence_imm","time_check_identification","time_check_made_identification","time_check_multiple_identification","time_check_proceeding_identification","time_confidence_imm","time_end_of_experiment","time_experiment","time_gender_lineup_loop","time_gender_randomization_sequence","time_identification_task","time_instructions_after_multiple","time_instructions_after_proceed_identification","time_instructions_before_view","time_lineup_loop","time_lineup_procedure_loop","time_lineup_procedure_sequence","time_lineup_sequence","time_logger","time_made_identification","time_member_randomization_loop","time_member_randomization_sequence","time_multiple_identification","time_proceed_identification","time_repeat_lineup_sequence_identification","time_repeat_lineup_sequence_multiple","time_target_setting","time_target_setting_loop","time_target_setting_sequence","time_video","title","transparent_variables","trial","uniform_coordinates","width"
"","white","no","xpyriment","legacy","legacy","0","NA","relative","NA","NA","NA","NA","NA","NA","NA","NA","NA","NA","NA","0","0","0","NA","NA","NA","NA","NA","NA","NA","NA","NA","1","NA","NA","NA","NA","NA","NA","NA","0","0","0","NA","03/21/18 14:59:34","Executes Python code","yes","","lineup_videoFB_W.osexp","C:/Users/standalone/Desktop/FB 21 Mar 1.23","no","mono","no","24","no","black","no","yes","NA","768","NA","NA","NA","NA","legacy","0","0","C:/Users/standalone/Desktop/FB 21 Mar 1.23/subject-98.csv","NA","NA","NA","NA","NA","NA","NA","xpyriment","Jazzy James","3.1.6","0","2","legacy","1024","2","48000","-16","experiment","98","even","legacy","NA","present","absent","NA","NA","NA","NA","NA","NA","NA","NA","NA","NA","NA","NA","2387","NA","NA","NA","NA","NA","NA","NA","NA","NA","NA","2389","NA","NA","NA","NA","NA","NA","NA","2389","2387","2389","NA","lineup1","no","NA","no","1366"
"","white","no","xpyriment","legacy","legacy","0","NA","relative","1","1","NA","1","1","NA","NA","NA","NA","NA","NA","0","0","0","0","NA","NA","NA","NA","NA","0","NA","NA","3","NA","0","1","NA","NA","NA","NA","0","0","0","NA","03/21/18 14:59:34","Executes Python code","yes","","lineup_videoFB_W.osexp","C:/Users/standalone/Desktop/FB 21 Mar 1.23","no","mono","no","24","no","black","no","yes","female","768","NA","NA","NA","NA","legacy","0","0","C:/Users/standalone/Desktop/FB 21 Mar 1.23/subject-98.csv","NA","2","7","3","5","4","1","xpyriment","Jazzy James","3.1.6","0","2","legacy","1024","2","48000","-16","experiment","98","even","legacy","[target2]","present","absent","2450","NA","NA","2450","NA","NA","NA","NA","NA","NA","NA","NA","2387","2442","2446","NA","NA","NA","NA","NA","NA","NA","NA","2450","NA","2446","2450","NA","NA","NA","NA","2389","2387","2389","NA","lineup1","no","NA","no","1366"
"","white","no","xpyriment","legacy","legacy","0","NA","relative","1","1","NA","1","1","NA","NA","NA","NA","NA","NA","0","0","0","0","NA","NA","NA","NA","NA","0","NA","NA","3","NA","0","1","NA","NA","NA","NA","0","0","0","NA","03/21/18 14:59:34","Executes Python code","yes","","lineup_videoFB_W.osexp","C:/Users/standalone/Desktop/FB 21 Mar 1.23","no","mono","no","24","no","black","no","yes","female","768","NA","NA","NA","NA","legacy","0","0","C:/Users/standalone/Desktop/FB 21 Mar 1.23/subject-98.csv","NA","2","7","3","5","4","1","xpyriment","Jazzy James","3.1.6","0","2","legacy","1024","2","48000","-16","experiment","98","even","legacy","[target2]","present","absent","2450","NA","NA","2450","NA","NA","NA","NA","NA","NA","NA","NA","2387","2442","2446","NA","NA","NA","NA","NA","NA","NA","NA","2491","NA","2446","2450","NA","NA","NA","NA","2389","2387","2389","NA","lineup1","no","NA","no","1366"
"","white","no","xpyriment","legacy","legacy","0","no","relative","1","1","0","1","1","0","0","0","0","0","0","0","0","0","0","0","0","0","0","0","0","0","0","5","0","0","1","0","0","0","0","0","0","0","0","03/21/18 14:59:34","Executes Python code","yes","","lineup_videoFB_W.osexp","C:/Users/standalone/Desktop/FB 21 Mar 1.23","no","mono","no","24","no","black","no","yes","female","768","No","no","no","no","legacy","0","0","C:/Users/standalone/Desktop/FB 21 Mar 1.23/subject-98.csv","[member1]","2","7","3","5","4","1","xpyriment","Jazzy James","3.1.6","0","2","legacy","1024","2","48000","-16","experiment","98","even","legacy","[target2]","present","absent","2450","NA","NA","2450","NA","NA","59809","NA","NA","NA","NA","NA","2387","2442","2446","56402","NA","NA","3717","2562","2533","2562","3717","59809","NA","2446","2450","NA","NA","NA","NA","2389","2387","2389","25503","lineup1","no","1","no","1366"
"","white","no","xpyriment","legacy","legacy","0","no","relative","1","1","0","1","1","1","1","0","0","0","1","0","0","0","0","1","0","0","1","0","0","0","1","6","0","0","1","0","0","0","0","0","0","0","1","03/21/18 14:59:34","Executes Python code","yes","","lineup_videoFB_W.osexp","C:/Users/standalone/Desktop/FB 21 Mar 1.23","no","mono","no","24","no","black","no","yes","female","768","No","no","no","no","legacy","1","0","C:/Users/standalone/Desktop/FB 21 Mar 1.23/subject-98.csv","[member2]","2","7","3","5","4","1","xpyriment","Jazzy James","3.1.6","0","2","legacy","1024","2","48000","-16","experiment","98","even","legacy","[target2]","present","absent","2450","NA","NA","2450","NA","NA","68587","NA","NA","NA","NA","NA","2387","2442","2446","65586","NA","NA","3717","2562","2533","2562","60967","68587","NA","2446","2450","NA","NA","NA","NA","2389","2387","2389","60967","lineup1","no","2","no","1366"
"","white","no","xpyriment","legacy","legacy","0","no","relative","1","1","0","1","1","2","2","0","0","0","2","0","0","0","0","2","0","0","2","0","0","0","2","7","0","0","1","0","0","0","0","0","0","0","2","03/21/18 14:59:34","Executes Python code","yes","","lineup_videoFB_W.osexp","C:/Users/standalone/Desktop/FB 21 Mar 1.23","no","mono","no","24","no","black","no","yes","female","768","No","no","no","no","legacy","2","0","C:/Users/standalone/Desktop/FB 21 Mar 1.23/subject-98.csv","[member3]","2","7","3","5","4","1","xpyriment","Jazzy James","3.1.6","0","2","legacy","1024","2","48000","-16","experiment","98","even","legacy","[target2]","present","absent","2450","NA","NA","2450","NA","NA","78883","NA","NA","NA","NA","NA","2387","2442","2446","75884","NA","NA","3717","2562","2533","2562","69740","78883","NA","2446","2450","NA","NA","NA","NA","2389","2387","2389","69740","lineup1","no","3","no","1366"
"","white","no","xpyriment","legacy","legacy","0","no","relative","1","1","0","1","1","3","3","0","0","0","3","0","0","0","0","3","0","0","3","0","0","0","3","8","0","0","1","0","0","0","0","0","0","0","3","03/21/18 14:59:34","Executes Python code","yes","","lineup_videoFB_W.osexp","C:/Users/standalone/Desktop/FB 21 Mar 1.23","no","mono","no","24","no","black","no","yes","female","768","No","no","no","no","legacy","3","0","C:/Users/standalone/Desktop/FB 21 Mar 1.23/subject-98.csv","[member4]","2","7","3","5","4","1","xpyriment","Jazzy James","3.1.6","0","2","legacy","1024","2","48000","-16","experiment","98","even","legacy","[target2]","present","absent","2450","NA","NA","2450","NA","NA","87625","NA","NA","NA","NA","NA","2387","2442","2446","85027","NA","NA","3717","2562","2533","2562","80042","87625","NA","2446","2450","NA","NA","NA","NA","2389","2387","2389","80042","lineup1","no","4","no","1366"
"","white","no","xpyriment","legacy","legacy","0","no","relative","1","1","0","1","1","4","4","0","0","0","4","0","0","0","0","4","0","0","4","0","0","0","4","9","0","0","1","0","0","0","0","0","0","0","4","03/21/18 14:59:34","Executes Python code","yes","","lineup_videoFB_W.osexp","C:/Users/standalone/Desktop/FB 21 Mar 1.23","no","mono","no","24","no","black","no","yes","female","768","Not sure","no","no","no","legacy","4","0","C:/Users/standalone/Desktop/FB 21 Mar 1.23/subject-98.csv","[member5]","2","7","3","5","4","1","xpyriment","Jazzy James","3.1.6","0","2","legacy","1024","2","48000","-16","experiment","98","even","legacy","[target2]","present","absent","2450","NA","NA","2450","NA","NA","105359","NA","NA","NA","NA","NA","2387","2442","2446","102370","NA","NA","3717","2562","2533","2562","88817","105359","NA","2446","2450","NA","NA","NA","NA","2389","2387","2389","88818","lineup1","no","5","no","1366"
"","white","no","xpyriment","legacy","legacy","0","no","relative","1","1","0","1","1","5","5","0","0","0","5","0","0","0","0","5","0","0","5","0","0","0","5","10","0","0","1","0","0","0","0","0","0","0","5","03/21/18 14:59:34","Executes Python code","yes","","lineup_videoFB_W.osexp","C:/Users/standalone/Desktop/FB 21 Mar 1.23","no","mono","no","24","no","black","no","yes","female","768","No","no","no","no","legacy","5","0","C:/Users/standalone/Desktop/FB 21 Mar 1.23/subject-98.csv","[member6]","2","7","3","5","4","1","xpyriment","Jazzy James","3.1.6","0","2","legacy","1024","2","48000","-16","experiment","98","even","legacy","[target2]","present","absent","2450","NA","NA","2450","NA","NA","113302","NA","NA","NA","NA","NA","2387","2442","2446","110537","NA","NA","3717","2562","2533","2562","106498","113302","NA","2446","2450","NA","NA","NA","NA","2389","2387","2389","106498","lineup1","no","6","no","1366"
"","white","no","xpyriment","legacy","legacy","0","no","relative","1","1","0","1","1","5","5","0","0","0","5","0","0","0","0","5","0","0","5","0","0","0","5","10","0","0","1","0","0","0","0","0","0","0","5","03/21/18 14:59:34","Executes Python code","yes","","lineup_videoFB_W.osexp","C:/Users/standalone/Desktop/FB 21 Mar 1.23","no","mono","no","24","no","black","no","yes","female","768","No","Yes","One","No","legacy","5","0","C:/Users/standalone/Desktop/FB 21 Mar 1.23/subject-98.csv","[member6]","2","7","3","5","4","1","xpyriment","Jazzy James","3.1.6","0","2","legacy","1024","2","48000","-16","experiment","98","even","legacy","[target2]","present","absent","2450","NA","122145","2450","NA","NA","113302","118054","122145","135315","NA","NA","2387","2442","2446","110537","NA","NA","3717","2562","2533","2562","106498","135315","113348","2446","2450","118054","126661","NA","NA","2389","2387","2389","106498","lineup1","no","6","no","1366"
"","white","no","xpyriment","legacy","legacy","0","no","relative","2","2","0","2","2","5","5","0","0","0","5","0","0","0","1","5","0","0","5","0","1","0","5","11","0","1","2","0","0","0","0","0","0","0","5","03/21/18 14:59:34","Executes Python code","yes","","lineup_videoFB_W.osexp","C:/Users/standalone/Desktop/FB 21 Mar 1.23","no","mono","no","24","no","black","no","yes","male","768","No","Yes","One","No","legacy","0","0","C:/Users/standalone/Desktop/FB 21 Mar 1.23/subject-98.csv","[member6]","4","6","1","5","3","2","xpyriment","Jazzy James","3.1.6","0","2","legacy","1024","2","48000","-16","experiment","98","even","legacy","[target1]","present","absent","2450","135385","122145","2450","135385","NA","113302","118054","122145","135315","NA","NA","2387","2442","135382","110537","NA","NA","3717","2562","2533","2562","106498","135385","113348","135382","135385","118054","126661","NA","NA","2389","2387","2389","106498","lineup1","no","6","no","1366"
"","white","no","xpyriment","legacy","legacy","0","no","relative","2","2","1","2","2","6","6","1","1","1","6","0","0","0","1","6","1","1","6","1","1","1","6","13","1","1","2","1","1","1","1","0","0","0","6","03/21/18 14:59:34","Executes Python code","yes","","lineup_videoFB_W.osexp","C:/Users/standalone/Desktop/FB 21 Mar 1.23","no","mono","no","24","no","black","no","yes","male","768","Not sure","no","no","no","legacy","0","0","C:/Users/standalone/Desktop/FB 21 Mar 1.23/subject-98.csv","[member1]","4","6","1","5","3","2","xpyriment","Jazzy James","3.1.6","0","2","legacy","1024","2","48000","-16","experiment","98","even","legacy","[target1]","present","absent","2450","135385","122145","2450","135385","NA","153555","118054","122145","135315","NA","NA","2387","2442","135382","149132","NA","NA","136488","135448","135418","135448","136488","153555","113348","135382","135385","118054","126661","NA","NA","2389","2387","2389","140006","lineup1","no","1","no","1366"
"","white","no","xpyriment","legacy","legacy","0","no","relative","2","2","1","2","2","7","7","1","1","1","7","0","0","0","1","7","1","1","7","1","1","1","7","14","1","1","2","1","1","1","1","0","0","0","7","03/21/18 14:59:34","Executes Python code","yes","","lineup_videoFB_W.osexp","C:/Users/standalone/Desktop/FB 21 Mar 1.23","no","mono","no","24","no","black","no","yes","male","768","No","no","no","no","legacy","1","0","C:/Users/standalone/Desktop/FB 21 Mar 1.23/subject-98.csv","[member2]","4","6","1","5","3","2","xpyriment","Jazzy James","3.1.6","0","2","legacy","1024","2","48000","-16","experiment","98","even","legacy","[target1]","present","absent","2450","135385","122145","2450","135385","NA","162633","118054","122145","135315","NA","NA","2387","2442","135382","160252","NA","NA","136488","135448","135418","135448","154628","162633","113348","135382","135385","118054","126661","NA","NA","2389","2387","2389","154628","lineup1","no","2","no","1366"
"","white","no","xpyriment","legacy","legacy","0","no","relative","2","2","1","2","2","8","8","1","1","1","8","0","0","0","1","8","1","1","8","1","1","1","8","15","1","1","2","1","1","1","1","0","0","0","8","03/21/18 14:59:34","Executes Python code","yes","","lineup_videoFB_W.osexp","C:/Users/standalone/Desktop/FB 21 Mar 1.23","no","mono","no","24","no","black","no","yes","male","768","Not sure","no","no","no","legacy","2","0","C:/Users/standalone/Desktop/FB 21 Mar 1.23/subject-98.csv","[member3]","4","6","1","5","3","2","xpyriment","Jazzy James","3.1.6","0","2","legacy","1024","2","48000","-16","experiment","98","even","legacy","[target1]","present","absent","2450","135385","122145","2450","135385","NA","178613","118054","122145","135315","NA","NA","2387","2442","135382","175634","NA","NA","136488","135448","135418","135448","163740","178614","113348","135382","135385","118054","126661","NA","NA","2389","2387","2389","163740","lineup1","no","3","no","1366"
"","white","no","xpyriment","legacy","legacy","0","no","relative","2","2","1","2","2","9","9","1","1","1","9","0","0","0","1","9","1","1","9","1","1","1","9","16","1","1","2","1","1","1","1","0","0","0","9","03/21/18 14:59:34","Executes Python code","yes","","lineup_videoFB_W.osexp","C:/Users/standalone/Desktop/FB 21 Mar 1.23","no","mono","no","24","no","black","no","yes","male","768","No","no","no","no","legacy","3","0","C:/Users/standalone/Desktop/FB 21 Mar 1.23/subject-98.csv","[member4]","4","6","1","5","3","2","xpyriment","Jazzy James","3.1.6","0","2","legacy","1024","2","48000","-16","experiment","98","even","legacy","[target1]","present","absent","2450","135385","122145","2450","135385","NA","188980","118054","122145","135315","NA","NA","2387","2442","135382","186612","NA","NA","136488","135448","135418","135448","179672","188980","113348","135382","135385","118054","126661","NA","NA","2389","2387","2389","179672","lineup1","no","4","no","1366"
"","white","no","xpyriment","legacy","legacy","0","no","relative","2","2","1","2","2","10","10","1","1","1","10","0","0","0","1","10","1","1","10","1","1","1","10","17","1","1","2","1","1","1","1","0","0","0","10","03/21/18 14:59:34","Executes Python code","yes","","lineup_videoFB_W.osexp","C:/Users/standalone/Desktop/FB 21 Mar 1.23","no","mono","no","24","no","black","no","yes","male","768","No","no","no","no","legacy","4","0","C:/Users/standalone/Desktop/FB 21 Mar 1.23/subject-98.csv","[member5]","4","6","1","5","3","2","xpyriment","Jazzy James","3.1.6","0","2","legacy","1024","2","48000","-16","experiment","98","even","legacy","[target1]","present","absent","2450","135385","122145","2450","135385","NA","204750","118054","122145","135315","NA","NA","2387","2442","135382","202176","NA","NA","136488","135448","135418","135448","190081","204750","113348","135382","135385","118054","126661","NA","NA","2389","2387","2389","190081","lineup1","no","5","no","1366"
"","white","no","xpyriment","legacy","legacy","0","no","relative","2","2","1","2","2","11","11","1","1","1","11","0","0","0","1","11","1","1","11","1","1","1","11","18","1","1","2","1","1","1","1","0","0","0","11","03/21/18 14:59:34","Executes Python code","yes","","lineup_videoFB_W.osexp","C:/Users/standalone/Desktop/FB 21 Mar 1.23","no","mono","no","24","no","black","no","yes","male","768","No","no","no","no","legacy","5","0","C:/Users/standalone/Desktop/FB 21 Mar 1.23/subject-98.csv","[member6]","4","6","1","5","3","2","xpyriment","Jazzy James","3.1.6","0","2","legacy","1024","2","48000","-16","experiment","98","even","legacy","[target1]","present","absent","2450","135385","122145","2450","135385","NA","211355","118054","122145","135315","NA","NA","2387","2442","135382","208443","NA","NA","136488","135448","135418","135448","205804","211355","113348","135382","135385","118054","126661","NA","NA","2389","2387","2389","205805","lineup1","no","6","no","1366"
"","white","no","xpyriment","legacy","legacy","0","no","relative","2","2","1","2","2","11","11","1","1","1","11","0","0","0","1","11","1","1","11","1","1","1","11","18","1","1","2","1","1","1","1","0","0","0","11","03/21/18 14:59:34","Executes Python code","yes","","lineup_videoFB_W.osexp","C:/Users/standalone/Desktop/FB 21 Mar 1.23","no","mono","no","24","no","black","no","yes","male","768","No","No","no","No","legacy","5","0","C:/Users/standalone/Desktop/FB 21 Mar 1.23/subject-98.csv","[member6]","4","6","1","5","3","2","xpyriment","Jazzy James","3.1.6","0","2","legacy","1024","2","48000","-16","experiment","98","even","legacy","[target1]","present","absent","2450","135385","214844","2450","135385","NA","211355","214844","122145","225732","NA","NA","2387","2442","135382","208443","NA","NA","136488","135448","135418","135448","205804","225732","211401","135382","135385","118054","219153","NA","NA","2389","2387","2389","205805","lineup1","no","6","no","1366"
"","white","no","xpyriment","legacy","legacy","0","no","relative","2","2","1","2","2","11","11","1","1","1","11","0","0","0","1","11","1","1","11","1","1","1","11","18","1","1","2","1","1","1","1","0","0","0","11","03/21/18 14:59:34","Executes Python code","yes","","lineup_videoFB_W.osexp","C:/Users/standalone/Desktop/FB 21 Mar 1.23","no","mono","no","24","no","black","no","yes","male","768","No","No","no","No","legacy","5","0","C:/Users/standalone/Desktop/FB 21 Mar 1.23/subject-98.csv","[member6]","4","6","1","5","3","2","xpyriment","Jazzy James","3.1.6","0","2","legacy","1024","2","48000","-16","experiment","98","even","legacy","[target1]","present","absent","2450","135385","214844","2450","135385","NA","211355","214844","122145","225732","NA","225811","2387","2442","135382","208443","NA","NA","136488","135448","135418","135448","205804","227024","211401","135382","135385","118054","219153","NA","NA","2389","2387","2389","205805","lineup1","no","6","no","1366"
