"_prepare","background","bidi","canvas_backend","clock_backend","color_backend","compensation","confidence_immediate","coordinates","count_TA_sequence_setting","count_TP_sequence_setting","count_admin_check","count_check_TA","count_check_TP","count_check_confidence_imm","count_check_identification","count_check_made_identification","count_check_multiple_identification","count_check_proceeding_identification","count_confidence_imm","count_end_of_experiment","count_experiment","count_gender_lineup_loop","count_gender_randomization_sequence","count_identification_task","count_instructions_after_multiple","count_instructions_after_proceed_identification","count_instructions_before_view","count_lineup_loop","count_lineup_procedure_loop","count_lineup_procedure_sequence","count_lineup_sequence","count_logger","count_made_identification","count_member_randomization_loop","count_member_randomization_sequence","count_multiple_identification","count_proceed_identification","count_repeat_lineup_sequence_identification","count_repeat_lineup_sequence_multiple","count_target_setting","count_target_setting_loop","count_target_setting_sequence","count_video","datetime","description","disable_garbage_collection","empty_column","experiment_file","experiment_path","font_bold","font_family","font_italic","font_size","font_underline","foreground","form_clicks","fullscreen","gender","height","identification","identification_made","identification_multiple","identification_proceed","keyboard_backend","live_row","live_row_target_setting_loop","logfile","member","member1","member2","member3","member4","member5","member6","mouse_backend","opensesame_codename","opensesame_version","repeat_cycle","round_decimals","sampler_backend","sound_buf_size","sound_channels","sound_freq","sound_sample_size","start","subject_nr","subject_parity","synth_backend","target","target1","target2","time_TA_sequence_setting","time_TP_sequence_setting","time_admin_check","time_check_TA","time_check_TP","time_check_confidence_imm","time_check_identification","time_check_made_identification","time_check_multiple_identification","time_check_proceeding_identification","time_confidence_imm","time_end_of_experiment","time_experiment","time_gender_lineup_loop","time_gender_randomization_sequence","time_identification_task","time_instructions_after_multiple","time_instructions_after_proceed_identification","time_instructions_before_view","time_lineup_loop","time_lineup_procedure_loop","time_lineup_procedure_sequence","time_lineup_sequence","time_logger","time_made_identification","time_member_randomization_loop","time_member_randomization_sequence","time_multiple_identification","time_proceed_identification","time_repeat_lineup_sequence_identification","time_repeat_lineup_sequence_multiple","time_target_setting","time_target_setting_loop","time_target_setting_sequence","time_video","title","transparent_variables","trial","uniform_coordinates","width"
"","white","no","xpyriment","legacy","legacy","0","NA","relative","NA","NA","NA","NA","NA","NA","NA","NA","NA","NA","NA","0","0","0","NA","NA","NA","NA","NA","NA","NA","NA","NA","1","NA","NA","NA","NA","NA","NA","NA","0","0","0","NA","03/21/18 14:52:58","Executes Python code","yes","","lineup_videoFB_W.osexp","C:/Users/standalone/Desktop/FB 21 Mar 1.23","no","mono","no","24","no","black","no","yes","NA","768","NA","NA","NA","NA","legacy","0","0","C:/Users/standalone/Desktop/FB 21 Mar 1.23/subject-93.csv","NA","NA","NA","NA","NA","NA","NA","xpyriment","Jazzy James","3.1.6","0","2","legacy","1024","2","48000","-16","experiment","93","odd","legacy","NA","present","absent","NA","NA","NA","NA","NA","NA","NA","NA","NA","NA","NA","NA","2290","NA","NA","NA","NA","NA","NA","NA","NA","NA","NA","2291","NA","NA","NA","NA","NA","NA","NA","2291","2290","2291","NA","lineup1","no","NA","no","1366"
"","white","no","xpyriment","legacy","legacy","0","NA","relative","0","0","NA","0","0","NA","NA","NA","NA","NA","NA","0","0","0","0","NA","NA","NA","NA","NA","0","NA","NA","2","NA","0","0","NA","NA","NA","NA","0","0","0","NA","03/21/18 14:52:58","Executes Python code","yes","","lineup_videoFB_W.osexp","C:/Users/standalone/Desktop/FB 21 Mar 1.23","no","mono","no","24","no","black","no","yes","male","768","NA","NA","NA","NA","legacy","0","0","C:/Users/standalone/Desktop/FB 21 Mar 1.23/subject-93.csv","NA","1","5","3","2","4","6","xpyriment","Jazzy James","3.1.6","0","2","legacy","1024","2","48000","-16","experiment","93","odd","legacy","[target1]","present","absent","NA","2382","NA","NA","2382","NA","NA","NA","NA","NA","NA","NA","2290","2376","2380","NA","NA","NA","NA","NA","NA","NA","NA","2382","NA","2380","2382","NA","NA","NA","NA","2291","2290","2291","NA","lineup1","no","NA","no","1366"
"","white","no","xpyriment","legacy","legacy","0","no","relative","0","0","0","0","0","0","0","0","0","0","0","0","0","0","0","0","0","0","0","0","0","0","0","4","0","0","0","0","0","0","0","0","0","0","0","03/21/18 14:52:58","Executes Python code","yes","","lineup_videoFB_W.osexp","C:/Users/standalone/Desktop/FB 21 Mar 1.23","no","mono","no","24","no","black","no","yes","male","768","No","no","no","no","legacy","0","0","C:/Users/standalone/Desktop/FB 21 Mar 1.23/subject-93.csv","[member1]","1","5","3","2","4","6","xpyriment","Jazzy James","3.1.6","0","2","legacy","1024","2","48000","-16","experiment","93","odd","legacy","[target1]","present","absent","NA","2382","NA","NA","2382","NA","58336","NA","NA","NA","NA","NA","2290","2376","2380","54717","NA","NA","3572","2451","2424","2451","3571","58336","NA","2380","2382","NA","NA","NA","NA","2291","2290","2291","27429","lineup1","no","1","no","1366"
"","white","no","xpyriment","legacy","legacy","0","no","relative","0","0","0","0","0","1","1","0","0","0","1","0","0","0","0","1","0","0","1","0","0","0","1","5","0","0","0","0","0","0","0","0","0","0","1","03/21/18 14:52:58","Executes Python code","yes","","lineup_videoFB_W.osexp","C:/Users/standalone/Desktop/FB 21 Mar 1.23","no","mono","no","24","no","black","no","yes","male","768","Not sure","no","no","no","legacy","1","0","C:/Users/standalone/Desktop/FB 21 Mar 1.23/subject-93.csv","[member2]","1","5","3","2","4","6","xpyriment","Jazzy James","3.1.6","0","2","legacy","1024","2","48000","-16","experiment","93","odd","legacy","[target1]","present","absent","NA","2382","NA","NA","2382","NA","82250","NA","NA","NA","NA","NA","2290","2376","2380","77432","NA","NA","3572","2451","2424","2451","59421","82250","NA","2380","2382","NA","NA","NA","NA","2291","2290","2291","59421","lineup1","no","2","no","1366"
"","white","no","xpyriment","legacy","legacy","0","no","relative","0","0","0","0","0","2","2","0","0","0","2","0","0","0","0","2","0","0","2","0","0","0","2","6","0","0","0","0","0","0","0","0","0","0","2","03/21/18 14:52:58","Executes Python code","yes","","lineup_videoFB_W.osexp","C:/Users/standalone/Desktop/FB 21 Mar 1.23","no","mono","no","24","no","black","no","yes","male","768","No","no","no","no","legacy","2","0","C:/Users/standalone/Desktop/FB 21 Mar 1.23/subject-93.csv","[member3]","1","5","3","2","4","6","xpyriment","Jazzy James","3.1.6","0","2","legacy","1024","2","48000","-16","experiment","93","odd","legacy","[target1]","present","absent","NA","2382","NA","NA","2382","NA","89871","NA","NA","NA","NA","NA","2290","2376","2380","86745","NA","NA","3572","2451","2424","2451","83366","89871","NA","2380","2382","NA","NA","NA","NA","2291","2290","2291","83366","lineup1","no","3","no","1366"
"","white","no","xpyriment","legacy","legacy","0","no","relative","0","0","0","0","0","3","3","0","0","0","3","0","0","0","0","3","0","0","3","0","0","0","3","7","0","0","0","0","0","0","0","0","0","0","3","03/21/18 14:52:58","Executes Python code","yes","","lineup_videoFB_W.osexp","C:/Users/standalone/Desktop/FB 21 Mar 1.23","no","mono","no","24","no","black","no","yes","male","768","No","no","no","no","legacy","3","0","C:/Users/standalone/Desktop/FB 21 Mar 1.23/subject-93.csv","[member4]","1","5","3","2","4","6","xpyriment","Jazzy James","3.1.6","0","2","legacy","1024","2","48000","-16","experiment","93","odd","legacy","[target1]","present","absent","NA","2382","NA","NA","2382","NA","95196","NA","NA","NA","NA","NA","2290","2376","2380","92325","NA","NA","3572","2451","2424","2451","90926","95196","NA","2380","2382","NA","NA","NA","NA","2291","2290","2291","90926","lineup1","no","4","no","1366"
"","white","no","xpyriment","legacy","legacy","0","no","relative","0","0","0","0","0","4","4","0","0","0","4","0","0","0","0","4","0","0","4","0","0","0","4","8","0","0","0","0","0","0","0","0","0","0","4","03/21/18 14:52:58","Executes Python code","yes","","lineup_videoFB_W.osexp","C:/Users/standalone/Desktop/FB 21 Mar 1.23","no","mono","no","24","no","black","no","yes","male","768","No","no","no","no","legacy","4","0","C:/Users/standalone/Desktop/FB 21 Mar 1.23/subject-93.csv","[member5]","1","5","3","2","4","6","xpyriment","Jazzy James","3.1.6","0","2","legacy","1024","2","48000","-16","experiment","93","odd","legacy","[target1]","present","absent","NA","2382","NA","NA","2382","NA","100688","NA","NA","NA","NA","NA","2290","2376","2380","97613","NA","NA","3572","2451","2424","2451","96245","100688","NA","2380","2382","NA","NA","NA","NA","2291","2290","2291","96245","lineup1","no","5","no","1366"
"","white","no","xpyriment","legacy","legacy","0","no","relative","0","0","0","0","0","5","5","0","0","0","5","0","0","0","0","5","0","0","5","0","0","0","5","9","0","0","0","0","0","0","0","0","0","0","5","03/21/18 14:52:58","Executes Python code","yes","","lineup_videoFB_W.osexp","C:/Users/standalone/Desktop/FB 21 Mar 1.23","no","mono","no","24","no","black","no","yes","male","768","Not sure","no","no","no","legacy","5","0","C:/Users/standalone/Desktop/FB 21 Mar 1.23/subject-93.csv","[member6]","1","5","3","2","4","6","xpyriment","Jazzy James","3.1.6","0","2","legacy","1024","2","48000","-16","experiment","93","odd","legacy","[target1]","present","absent","NA","2382","NA","NA","2382","NA","128169","NA","NA","NA","NA","NA","2290","2376","2380","122690","NA","NA","3572","2451","2424","2451","101756","128169","NA","2380","2382","NA","NA","NA","NA","2291","2290","2291","101756","lineup1","no","6","no","1366"
"","white","no","xpyriment","legacy","legacy","0","no","relative","0","0","0","0","0","5","5","0","0","0","5","0","0","0","0","5","0","0","5","0","0","0","5","9","0","0","0","0","0","0","0","0","0","0","5","03/21/18 14:52:58","Executes Python code","yes","","lineup_videoFB_W.osexp","C:/Users/standalone/Desktop/FB 21 Mar 1.23","no","mono","no","24","no","black","no","yes","male","768","Not sure","No","no","No","legacy","5","0","C:/Users/standalone/Desktop/FB 21 Mar 1.23/subject-93.csv","[member6]","1","5","3","2","4","6","xpyriment","Jazzy James","3.1.6","0","2","legacy","1024","2","48000","-16","experiment","93","odd","legacy","[target1]","present","absent","NA","2382","133700","NA","2382","NA","128169","133700","NA","153289","NA","NA","2290","2376","2380","122690","NA","NA","3572","2451","2424","2451","101756","153289","128216","2380","2382","NA","143987","NA","NA","2291","2290","2291","101756","lineup1","no","6","no","1366"
"","white","no","xpyriment","legacy","legacy","0","no","relative","2","2","0","2","2","5","5","0","0","0","5","0","0","0","1","5","0","0","5","0","1","0","5","11","0","1","2","0","0","0","0","0","0","0","5","03/21/18 14:52:58","Executes Python code","yes","","lineup_videoFB_W.osexp","C:/Users/standalone/Desktop/FB 21 Mar 1.23","no","mono","no","24","no","black","no","yes","female","768","Not sure","No","no","No","legacy","0","0","C:/Users/standalone/Desktop/FB 21 Mar 1.23/subject-93.csv","[member6]","2","1","3","5","7","4","xpyriment","Jazzy James","3.1.6","0","2","legacy","1024","2","48000","-16","experiment","93","odd","legacy","[target2]","present","absent","153369","2382","133700","153369","2382","NA","128169","133700","NA","153289","NA","NA","2290","2376","153364","122690","NA","NA","3572","2451","2424","2451","101756","153369","128216","153364","153369","NA","143987","NA","NA","2291","2290","2291","101756","lineup1","no","6","no","1366"
"","white","no","xpyriment","legacy","legacy","0","no","relative","2","2","0","2","2","5","5","0","0","0","5","0","0","0","1","5","0","0","5","0","1","0","5","11","0","1","2","0","0","0","0","0","0","0","5","03/21/18 14:52:58","Executes Python code","yes","","lineup_videoFB_W.osexp","C:/Users/standalone/Desktop/FB 21 Mar 1.23","no","mono","no","24","no","black","no","yes","female","768","Not sure","No","no","No","legacy","0","0","C:/Users/standalone/Desktop/FB 21 Mar 1.23/subject-93.csv","[member6]","2","1","3","5","7","4","xpyriment","Jazzy James","3.1.6","0","2","legacy","1024","2","48000","-16","experiment","93","odd","legacy","[target2]","present","absent","153369","2382","133700","153369","2382","NA","128169","133700","NA","153289","NA","NA","2290","2376","153364","122690","NA","NA","3572","2451","2424","2451","101756","153416","128216","153364","153369","NA","143987","NA","NA","2291","2290","2291","101756","lineup1","no","6","no","1366"
"","white","no","xpyriment","legacy","legacy","0","60","relative","2","2","1","2","2","6","6","1","1","1","6","0","0","0","1","6","1","1","6","1","1","1","6","13","1","1","2","1","1","1","1","0","0","0","6","03/21/18 14:52:58","Executes Python code","yes","","lineup_videoFB_W.osexp","C:/Users/standalone/Desktop/FB 21 Mar 1.23","no","mono","no","24","no","black","no","yes","female","768","Yes","no","no","no","legacy","0","0","C:/Users/standalone/Desktop/FB 21 Mar 1.23/subject-93.csv","[member1]","2","1","3","5","7","4","xpyriment","Jazzy James","3.1.6","0","2","legacy","1024","2","48000","-16","experiment","93","odd","legacy","[target2]","present","absent","153369","2382","133700","153369","2382","183354","175148","133700","NA","153289","175148","NA","2290","2376","153364","171946","NA","NA","154574","153480","153450","153480","154574","183354","128216","153364","153369","NA","143987","NA","NA","2291","2290","2291","159540","lineup1","no","1","no","1366"
"","white","no","xpyriment","legacy","legacy","0","no","relative","2","2","1","2","2","7","7","1","1","1","7","0","0","0","1","7","1","1","7","1","1","1","7","14","1","1","2","1","1","1","1","0","0","0","7","03/21/18 14:52:58","Executes Python code","yes","","lineup_videoFB_W.osexp","C:/Users/standalone/Desktop/FB 21 Mar 1.23","no","mono","no","24","no","black","no","yes","female","768","No","no","no","no","legacy","1","0","C:/Users/standalone/Desktop/FB 21 Mar 1.23/subject-93.csv","[member2]","2","1","3","5","7","4","xpyriment","Jazzy James","3.1.6","0","2","legacy","1024","2","48000","-16","experiment","93","odd","legacy","[target2]","present","absent","153369","2382","133700","153369","2382","183354","191420","133700","NA","153289","175148","NA","2290","2376","153364","189245","NA","NA","154574","153480","153450","153480","184496","191420","128216","153364","153369","NA","143987","NA","NA","2291","2290","2291","184496","lineup1","no","2","no","1366"
"","white","no","xpyriment","legacy","legacy","0","no","relative","2","2","1","2","2","8","8","1","1","1","8","0","0","0","1","8","1","1","8","1","1","1","8","15","1","1","2","1","1","1","1","0","0","0","8","03/21/18 14:52:58","Executes Python code","yes","","lineup_videoFB_W.osexp","C:/Users/standalone/Desktop/FB 21 Mar 1.23","no","mono","no","24","no","black","no","yes","female","768","No","no","no","no","legacy","2","0","C:/Users/standalone/Desktop/FB 21 Mar 1.23/subject-93.csv","[member3]","2","1","3","5","7","4","xpyriment","Jazzy James","3.1.6","0","2","legacy","1024","2","48000","-16","experiment","93","odd","legacy","[target2]","present","absent","153369","2382","133700","153369","2382","183354","200483","133700","NA","153289","175148","NA","2290","2376","153364","198121","NA","NA","154574","153480","153450","153480","192586","200483","128216","153364","153369","NA","143987","NA","NA","2291","2290","2291","192586","lineup1","no","3","no","1366"
"","white","no","xpyriment","legacy","legacy","0","no","relative","2","2","1","2","2","9","9","1","1","1","9","0","0","0","1","9","1","1","9","1","1","1","9","16","1","1","2","1","1","1","1","0","0","0","9","03/21/18 14:52:58","Executes Python code","yes","","lineup_videoFB_W.osexp","C:/Users/standalone/Desktop/FB 21 Mar 1.23","no","mono","no","24","no","black","no","yes","female","768","No","no","no","no","legacy","3","0","C:/Users/standalone/Desktop/FB 21 Mar 1.23/subject-93.csv","[member4]","2","1","3","5","7","4","xpyriment","Jazzy James","3.1.6","0","2","legacy","1024","2","48000","-16","experiment","93","odd","legacy","[target2]","present","absent","153369","2382","133700","153369","2382","183354","205450","133700","NA","153289","175148","NA","2290","2376","153364","202793","NA","NA","154574","153480","153450","153480","201595","205450","128216","153364","153369","NA","143987","NA","NA","2291","2290","2291","201595","lineup1","no","4","no","1366"
"","white","no","xpyriment","legacy","legacy","0","no","relative","2","2","1","2","2","10","10","1","1","1","10","0","0","0","1","10","1","1","10","1","1","1","10","17","1","1","2","1","1","1","1","0","0","0","10","03/21/18 14:52:58","Executes Python code","yes","","lineup_videoFB_W.osexp","C:/Users/standalone/Desktop/FB 21 Mar 1.23","no","mono","no","24","no","black","no","yes","female","768","No","no","no","no","legacy","4","0","C:/Users/standalone/Desktop/FB 21 Mar 1.23/subject-93.csv","[member5]","2","1","3","5","7","4","xpyriment","Jazzy James","3.1.6","0","2","legacy","1024","2","48000","-16","experiment","93","odd","legacy","[target2]","present","absent","153369","2382","133700","153369","2382","183354","209966","133700","NA","153289","175148","NA","2290","2376","153364","207912","NA","NA","154574","153480","153450","153480","206582","209966","128216","153364","153369","NA","143987","NA","NA","2291","2290","2291","206582","lineup1","no","5","no","1366"
"","white","no","xpyriment","legacy","legacy","0","no","relative","2","2","1","2","2","11","11","1","1","1","11","0","0","0","1","11","1","1","11","1","1","1","11","18","1","1","2","1","1","1","1","0","0","0","11","03/21/18 14:52:58","Executes Python code","yes","","lineup_videoFB_W.osexp","C:/Users/standalone/Desktop/FB 21 Mar 1.23","no","mono","no","24","no","black","no","yes","female","768","No","no","no","no","legacy","5","0","C:/Users/standalone/Desktop/FB 21 Mar 1.23/subject-93.csv","[member6]","2","1","3","5","7","4","xpyriment","Jazzy James","3.1.6","0","2","legacy","1024","2","48000","-16","experiment","93","odd","legacy","[target2]","present","absent","153369","2382","133700","153369","2382","183354","214446","133700","NA","153289","175148","NA","2290","2376","153364","212195","NA","NA","154574","153480","153450","153480","211118","214446","128216","153364","153369","NA","143987","NA","NA","2291","2290","2291","211118","lineup1","no","6","no","1366"
"","white","no","xpyriment","legacy","legacy","0","no","relative","2","2","1","2","2","11","11","1","1","1","11","0","0","0","1","11","1","1","11","1","1","1","11","18","1","1","2","1","1","1","1","0","0","0","11","03/21/18 14:52:58","Executes Python code","yes","","lineup_videoFB_W.osexp","C:/Users/standalone/Desktop/FB 21 Mar 1.23","no","mono","no","24","no","black","no","yes","female","768","No","Yes","One","No","legacy","5","0","C:/Users/standalone/Desktop/FB 21 Mar 1.23/subject-93.csv","[member6]","2","1","3","5","7","4","xpyriment","Jazzy James","3.1.6","0","2","legacy","1024","2","48000","-16","experiment","93","odd","legacy","[target2]","present","absent","153369","2382","224208","153369","2382","183354","214446","218410","224207","235131","175148","NA","2290","2376","153364","212195","NA","NA","154574","153480","153450","153480","211118","235131","214493","153364","153369","218410","228923","NA","NA","2291","2290","2291","211118","lineup1","no","6","no","1366"
"","white","no","xpyriment","legacy","legacy","0","no","relative","2","2","1","2","2","11","11","1","1","1","11","0","0","0","1","11","1","1","11","1","1","1","11","18","1","1","2","1","1","1","1","0","0","0","11","03/21/18 14:52:58","Executes Python code","yes","","lineup_videoFB_W.osexp","C:/Users/standalone/Desktop/FB 21 Mar 1.23","no","mono","no","24","no","black","no","yes","female","768","No","Yes","One","No","legacy","5","0","C:/Users/standalone/Desktop/FB 21 Mar 1.23/subject-93.csv","[member6]","2","1","3","5","7","4","xpyriment","Jazzy James","3.1.6","0","2","legacy","1024","2","48000","-16","experiment","93","odd","legacy","[target2]","present","absent","153369","2382","224208","153369","2382","183354","214446","218410","224207","235131","175148","235196","2290","2376","153364","212195","NA","NA","154574","153480","153450","153480","211118","236572","214493","153364","153369","218410","228923","NA","NA","2291","2290","2291","211118","lineup1","no","6","no","1366"
