"_prepare","background","bidi","canvas_backend","clock_backend","color_backend","compensation","confidence_immediate","coordinates","count_TA_sequence_setting","count_TP_sequence_setting","count_admin_check","count_check_TP","count_check_confidence_imm","count_check_identification","count_check_made_identification","count_check_multiple_identification","count_check_proceeding_identification","count_check_time_of_exposure","count_confidence_imm","count_end_of_experiment","count_experiment","count_gender_lineup_loop","count_gender_randomization_sequence","count_identification_task","count_instructions_after_multiple","count_instructions_after_proceed_identification","count_instructions_before_view","count_lineup_loop","count_lineup_procedure_loop","count_lineup_procedure_sequence","count_lineup_sequence","count_logger","count_made_identification","count_member_randomization_loop","count_member_randomization_sequence","count_multiple_identification","count_proceed_identification","count_repeat_lineup_sequence_identification","count_repeat_lineup_sequence_multiple","count_target_setting","count_target_setting_loop","count_target_setting_sequence","count_time_of_exposure","count_video","datetime","description","disable_garbage_collection","empty_column","experiment_file","experiment_path","font_bold","font_family","font_italic","font_size","font_underline","foreground","form_clicks","fullscreen","gender","height","identification","identification_made","identification_multiple","identification_proceed","keyboard_backend","lecture_time","live_row","live_row_target_setting_loop","logfile","member","member1","member2","member3","member4","member5","member6","mouse_backend","opensesame_codename","opensesame_version","repeat_cycle","round_decimals","sampler_backend","sound_buf_size","sound_channels","sound_freq","sound_sample_size","start","subject_nr","subject_parity","synth_backend","target","target1","target2","time_TA_sequence_setting","time_TP_sequence_setting","time_admin_check","time_check_TP","time_check_confidence_imm","time_check_identification","time_check_made_identification","time_check_multiple_identification","time_check_proceeding_identification","time_check_time_of_exposure","time_confidence_imm","time_end_of_experiment","time_experiment","time_gender_lineup_loop","time_gender_randomization_sequence","time_identification_task","time_instructions_after_multiple","time_instructions_after_proceed_identification","time_instructions_before_view","time_lineup_loop","time_lineup_procedure_loop","time_lineup_procedure_sequence","time_lineup_sequence","time_logger","time_made_identification","time_member_randomization_loop","time_member_randomization_sequence","time_multiple_identification","time_proceed_identification","time_repeat_lineup_sequence_identification","time_repeat_lineup_sequence_multiple","time_target_setting","time_target_setting_loop","time_target_setting_sequence","time_time_of_exposure","time_video","title","transparent_variables","trial","uniform_coordinates","width"
"","white","no","xpyriment","legacy","legacy","0","NA","relative","NA","NA","NA","NA","NA","NA","NA","NA","NA","0","NA","0","0","0","NA","NA","NA","NA","NA","NA","NA","NA","NA","1","NA","NA","NA","NA","NA","NA","NA","0","0","0","0","NA","11/04/17 13:50:15","Executes Python code","yes","","lineup_videoFB.osexp","C:/Users/standalone/Desktop/Full Body Video 0411","no","mono","no","24","no","black","no","yes","NA","768","NA","NA","NA","NA","legacy","no","0","0","C:/Users/standalone/Desktop/Full Body Video 0411/subject-24.csv","NA","NA","NA","NA","NA","NA","NA","xpyriment","Jazzy James","3.1.6","0","2","legacy","1024","2","48000","-16","experiment","24","even","legacy","NA","absent","present","NA","NA","NA","NA","NA","NA","NA","NA","NA","NA","NA","NA","3312","NA","NA","NA","NA","NA","NA","NA","NA","NA","NA","3313","NA","NA","NA","NA","NA","NA","NA","3313","3312","3313","NA","NA","lineup1","no","NA","no","1366"
"","white","no","xpyriment","legacy","legacy","0","NA","relative","0","0","NA","0","NA","NA","NA","NA","NA","0","NA","0","0","0","0","NA","NA","NA","NA","NA","0","NA","NA","2","NA","0","0","NA","NA","NA","NA","0","0","0","0","NA","11/04/17 13:50:15","Executes Python code","yes","","lineup_videoFB.osexp","C:/Users/standalone/Desktop/Full Body Video 0411","no","mono","no","24","no","black","no","yes","male","768","NA","NA","NA","NA","legacy","no","0","0","C:/Users/standalone/Desktop/Full Body Video 0411/subject-24.csv","NA","1","5","7","3","4","2","xpyriment","Jazzy James","3.1.6","0","2","legacy","1024","2","48000","-16","experiment","24","even","legacy","[target1]","absent","present","3390","NA","NA","NA","NA","NA","NA","NA","NA","NA","NA","NA","3312","3384","3388","NA","NA","NA","NA","NA","NA","NA","NA","3390","NA","3388","3390","NA","NA","NA","NA","3313","3312","3313","NA","NA","lineup1","no","NA","no","1366"
"","white","no","xpyriment","legacy","legacy","0","no","relative","0","0","0","0","0","0","0","0","0","0","0","0","0","0","0","0","0","0","0","0","0","0","0","4","0","0","0","0","0","0","0","0","0","0","0","0","11/04/17 13:50:15","Executes Python code","yes","","lineup_videoFB.osexp","C:/Users/standalone/Desktop/Full Body Video 0411","no","mono","no","24","no","black","no","yes","male","768","No","no","no","no","legacy","no","0","0","C:/Users/standalone/Desktop/Full Body Video 0411/subject-24.csv","[member1]","1","5","7","3","4","2","xpyriment","Jazzy James","3.1.6","0","2","legacy","1024","2","48000","-16","experiment","24","even","legacy","[target1]","absent","present","3390","NA","NA","NA","NA","57014","NA","NA","NA","NA","NA","NA","3312","3384","3388","51353","NA","NA","4593","3454","3429","3454","4593","57014","NA","3388","3390","NA","NA","NA","NA","3313","3312","3313","NA","24012","lineup1","no","1","no","1366"
"","white","no","xpyriment","legacy","legacy","0","no","relative","0","0","0","0","1","1","0","0","0","0","1","0","0","0","0","1","0","0","1","0","0","0","1","5","0","0","0","0","0","0","0","0","0","0","0","1","11/04/17 13:50:15","Executes Python code","yes","","lineup_videoFB.osexp","C:/Users/standalone/Desktop/Full Body Video 0411","no","mono","no","24","no","black","no","yes","male","768","No","no","no","no","legacy","no","1","0","C:/Users/standalone/Desktop/Full Body Video 0411/subject-24.csv","[member2]","1","5","7","3","4","2","xpyriment","Jazzy James","3.1.6","0","2","legacy","1024","2","48000","-16","experiment","24","even","legacy","[target1]","absent","present","3390","NA","NA","NA","NA","84427","NA","NA","NA","NA","NA","NA","3312","3384","3388","81178","NA","NA","4593","3454","3429","3454","58066","84428","NA","3388","3390","NA","NA","NA","NA","3313","3312","3313","NA","58067","lineup1","no","2","no","1366"
"","white","no","xpyriment","legacy","legacy","0","no","relative","0","0","0","0","2","2","0","0","0","0","2","0","0","0","0","2","0","0","2","0","0","0","2","6","0","0","0","0","0","0","0","0","0","0","0","2","11/04/17 13:50:15","Executes Python code","yes","","lineup_videoFB.osexp","C:/Users/standalone/Desktop/Full Body Video 0411","no","mono","no","24","no","black","no","yes","male","768","No","no","no","no","legacy","no","2","0","C:/Users/standalone/Desktop/Full Body Video 0411/subject-24.csv","[member3]","1","5","7","3","4","2","xpyriment","Jazzy James","3.1.6","0","2","legacy","1024","2","48000","-16","experiment","24","even","legacy","[target1]","absent","present","3390","NA","NA","NA","NA","116244","NA","NA","NA","NA","NA","NA","3312","3384","3388","111635","NA","NA","4593","3454","3429","3454","85488","116244","NA","3388","3390","NA","NA","NA","NA","3313","3312","3313","NA","85488","lineup1","no","3","no","1366"
"","white","no","xpyriment","legacy","legacy","0","no","relative","0","0","0","0","3","3","0","0","0","0","3","0","0","0","0","3","0","0","3","0","0","0","3","7","0","0","0","0","0","0","0","0","0","0","0","3","11/04/17 13:50:15","Executes Python code","yes","","lineup_videoFB.osexp","C:/Users/standalone/Desktop/Full Body Video 0411","no","mono","no","24","no","black","no","yes","male","768","No","no","no","no","legacy","no","3","0","C:/Users/standalone/Desktop/Full Body Video 0411/subject-24.csv","[member4]","1","5","7","3","4","2","xpyriment","Jazzy James","3.1.6","0","2","legacy","1024","2","48000","-16","experiment","24","even","legacy","[target1]","absent","present","3390","NA","NA","NA","NA","145587","NA","NA","NA","NA","NA","NA","3312","3384","3388","143155","NA","NA","4593","3454","3429","3454","117281","145588","NA","3388","3390","NA","NA","NA","NA","3313","3312","3313","NA","117281","lineup1","no","4","no","1366"
"","white","no","xpyriment","legacy","legacy","0","no","relative","0","0","0","0","4","4","0","0","0","0","4","0","0","0","0","4","0","0","4","0","0","0","4","8","0","0","0","0","0","0","0","0","0","0","0","4","11/04/17 13:50:15","Executes Python code","yes","","lineup_videoFB.osexp","C:/Users/standalone/Desktop/Full Body Video 0411","no","mono","no","24","no","black","no","yes","male","768","Not sure","no","no","no","legacy","no","4","0","C:/Users/standalone/Desktop/Full Body Video 0411/subject-24.csv","[member5]","1","5","7","3","4","2","xpyriment","Jazzy James","3.1.6","0","2","legacy","1024","2","48000","-16","experiment","24","even","legacy","[target1]","absent","present","3390","NA","NA","NA","NA","170959","NA","NA","NA","NA","NA","NA","3312","3384","3388","168705","NA","NA","4593","3454","3429","3454","146642","170959","NA","3388","3390","NA","NA","NA","NA","3313","3312","3313","NA","146642","lineup1","no","5","no","1366"
"","white","no","xpyriment","legacy","legacy","0","no","relative","0","0","0","0","5","5","0","0","0","0","5","0","0","0","0","5","0","0","5","0","0","0","5","9","0","0","0","0","0","0","0","0","0","0","0","5","11/04/17 13:50:15","Executes Python code","yes","","lineup_videoFB.osexp","C:/Users/standalone/Desktop/Full Body Video 0411","no","mono","no","24","no","black","no","yes","male","768","No","no","no","no","legacy","no","5","0","C:/Users/standalone/Desktop/Full Body Video 0411/subject-24.csv","[member6]","1","5","7","3","4","2","xpyriment","Jazzy James","3.1.6","0","2","legacy","1024","2","48000","-16","experiment","24","even","legacy","[target1]","absent","present","3390","NA","NA","NA","NA","199106","NA","NA","NA","NA","NA","NA","3312","3384","3388","196881","NA","NA","4593","3454","3429","3454","172015","199106","NA","3388","3390","NA","NA","NA","NA","3313","3312","3313","NA","172015","lineup1","no","6","no","1366"
"","white","no","xpyriment","legacy","legacy","0","no","relative","0","0","0","0","5","5","0","0","0","0","5","0","0","0","0","5","0","0","5","0","0","0","5","9","0","0","0","0","0","0","0","0","0","0","0","5","11/04/17 13:50:15","Executes Python code","yes","","lineup_videoFB.osexp","C:/Users/standalone/Desktop/Full Body Video 0411","no","mono","no","24","no","black","no","yes","male","768","No","No","no","No","legacy","no","5","0","C:/Users/standalone/Desktop/Full Body Video 0411/subject-24.csv","[member6]","1","5","7","3","4","2","xpyriment","Jazzy James","3.1.6","0","2","legacy","1024","2","48000","-16","experiment","24","even","legacy","[target1]","absent","present","3390","NA","210927","NA","NA","199106","210927","NA","227550","NA","NA","NA","3312","3384","3388","196881","NA","NA","4593","3454","3429","3454","172015","227550","199144","3388","3390","NA","218787","NA","NA","3313","3312","3313","NA","172015","lineup1","no","6","no","1366"
"","white","no","xpyriment","legacy","legacy","0","no","relative","2","2","0","2","5","5","0","0","0","0","5","0","0","0","1","5","0","0","5","0","1","0","5","11","0","1","2","0","0","0","0","0","0","0","0","5","11/04/17 13:50:15","Executes Python code","yes","","lineup_videoFB.osexp","C:/Users/standalone/Desktop/Full Body Video 0411","no","mono","no","24","no","black","no","yes","female","768","No","No","no","No","legacy","no","0","0","C:/Users/standalone/Desktop/Full Body Video 0411/subject-24.csv","[member6]","4","5","6","1","3","2","xpyriment","Jazzy James","3.1.6","0","2","legacy","1024","2","48000","-16","experiment","24","even","legacy","[target2]","absent","present","3390","227632","210927","227632","NA","199106","210927","NA","227550","NA","NA","NA","3312","3384","227628","196881","NA","NA","4593","3454","3429","3454","172015","227632","199144","227628","227632","NA","218787","NA","NA","3313","3312","3313","NA","172015","lineup1","no","6","no","1366"
"","white","no","xpyriment","legacy","legacy","0","no","relative","2","2","0","2","5","5","0","0","0","0","5","0","0","0","1","5","0","0","5","0","1","0","5","11","0","1","2","0","0","0","0","0","0","0","0","5","11/04/17 13:50:15","Executes Python code","yes","","lineup_videoFB.osexp","C:/Users/standalone/Desktop/Full Body Video 0411","no","mono","no","24","no","black","no","yes","female","768","No","No","no","No","legacy","no","0","0","C:/Users/standalone/Desktop/Full Body Video 0411/subject-24.csv","[member6]","4","5","6","1","3","2","xpyriment","Jazzy James","3.1.6","0","2","legacy","1024","2","48000","-16","experiment","24","even","legacy","[target2]","absent","present","3390","227632","210927","227632","NA","199106","210927","NA","227550","NA","NA","NA","3312","3384","227628","196881","NA","NA","4593","3454","3429","3454","172015","227682","199144","227628","227632","NA","218787","NA","NA","3313","3312","3313","NA","172015","lineup1","no","6","no","1366"
"","white","no","xpyriment","legacy","legacy","0","no","relative","2","2","1","2","6","6","1","1","1","0","6","0","0","0","1","6","1","1","6","1","1","1","6","13","1","1","2","1","1","1","1","0","0","0","0","6","11/04/17 13:50:15","Executes Python code","yes","","lineup_videoFB.osexp","C:/Users/standalone/Desktop/Full Body Video 0411","no","mono","no","24","no","black","no","yes","female","768","No","no","no","no","legacy","no","0","0","C:/Users/standalone/Desktop/Full Body Video 0411/subject-24.csv","[member1]","4","5","6","1","3","2","xpyriment","Jazzy James","3.1.6","0","2","legacy","1024","2","48000","-16","experiment","24","even","legacy","[target2]","absent","present","3390","227632","210927","227632","NA","256337","210927","NA","227550","NA","NA","NA","3312","3384","227628","253594","NA","NA","228750","227738","227714","227738","228750","256337","199144","227628","227632","NA","218787","NA","NA","3313","3312","3313","NA","231438","lineup1","no","1","no","1366"
"","white","no","xpyriment","legacy","legacy","0","no","relative","2","2","1","2","7","7","1","1","1","0","7","0","0","0","1","7","1","1","7","1","1","1","7","14","1","1","2","1","1","1","1","0","0","0","0","7","11/04/17 13:50:15","Executes Python code","yes","","lineup_videoFB.osexp","C:/Users/standalone/Desktop/Full Body Video 0411","no","mono","no","24","no","black","no","yes","female","768","No","no","no","no","legacy","no","1","0","C:/Users/standalone/Desktop/Full Body Video 0411/subject-24.csv","[member2]","4","5","6","1","3","2","xpyriment","Jazzy James","3.1.6","0","2","legacy","1024","2","48000","-16","experiment","24","even","legacy","[target2]","absent","present","3390","227632","210927","227632","NA","282303","210927","NA","227550","NA","NA","NA","3312","3384","227628","279538","NA","NA","228750","227738","227714","227738","257354","282303","199144","227628","227632","NA","218787","NA","NA","3313","3312","3313","NA","257355","lineup1","no","2","no","1366"
"","white","no","xpyriment","legacy","legacy","0","90","relative","2","2","1","2","8","8","1","1","1","0","8","0","0","0","1","8","1","1","8","1","1","1","8","15","1","1","2","1","1","1","1","0","0","0","0","8","11/04/17 13:50:15","Executes Python code","yes","","lineup_videoFB.osexp","C:/Users/standalone/Desktop/Full Body Video 0411","no","mono","no","24","no","black","no","yes","female","768","Yes","no","no","no","legacy","no","2","0","C:/Users/standalone/Desktop/Full Body Video 0411/subject-24.csv","[member3]","4","5","6","1","3","2","xpyriment","Jazzy James","3.1.6","0","2","legacy","1024","2","48000","-16","experiment","24","even","legacy","[target2]","absent","present","3390","227632","210927","227632","314408","307657","210927","NA","227550","NA","307657","NA","3312","3384","227628","305096","NA","NA","228750","227738","227714","227738","283342","314408","199144","227628","227632","NA","218787","NA","NA","3313","3312","3313","NA","283343","lineup1","no","3","no","1366"
"","white","no","xpyriment","legacy","legacy","0","no","relative","2","2","1","2","9","9","1","1","1","0","9","0","0","0","1","9","1","1","9","1","1","1","9","16","1","1","2","1","1","1","1","0","0","0","0","9","11/04/17 13:50:15","Executes Python code","yes","","lineup_videoFB.osexp","C:/Users/standalone/Desktop/Full Body Video 0411","no","mono","no","24","no","black","no","yes","female","768","No","no","no","no","legacy","no","3","0","C:/Users/standalone/Desktop/Full Body Video 0411/subject-24.csv","[member4]","4","5","6","1","3","2","xpyriment","Jazzy James","3.1.6","0","2","legacy","1024","2","48000","-16","experiment","24","even","legacy","[target2]","absent","present","3390","227632","210927","227632","314408","339552","210927","NA","227550","NA","307657","NA","3312","3384","227628","336827","NA","NA","228750","227738","227714","227738","315406","339552","199144","227628","227632","NA","218787","NA","NA","3313","3312","3313","NA","315407","lineup1","no","4","no","1366"
"","white","no","xpyriment","legacy","legacy","0","no","relative","2","2","1","2","10","10","1","1","1","0","10","0","0","0","1","10","1","1","10","1","1","1","10","17","1","1","2","1","1","1","1","0","0","0","0","10","11/04/17 13:50:15","Executes Python code","yes","","lineup_videoFB.osexp","C:/Users/standalone/Desktop/Full Body Video 0411","no","mono","no","24","no","black","no","yes","female","768","No","no","no","no","legacy","no","4","0","C:/Users/standalone/Desktop/Full Body Video 0411/subject-24.csv","[member5]","4","5","6","1","3","2","xpyriment","Jazzy James","3.1.6","0","2","legacy","1024","2","48000","-16","experiment","24","even","legacy","[target2]","absent","present","3390","227632","210927","227632","314408","365110","210927","NA","227550","NA","307657","NA","3312","3384","227628","362194","NA","NA","228750","227738","227714","227738","340621","365110","199144","227628","227632","NA","218787","NA","NA","3313","3312","3313","NA","340622","lineup1","no","5","no","1366"
"","white","no","xpyriment","legacy","legacy","0","no","relative","2","2","1","2","11","11","1","1","1","0","11","0","0","0","1","11","1","1","11","1","1","1","11","18","1","1","2","1","1","1","1","0","0","0","0","11","11/04/17 13:50:15","Executes Python code","yes","","lineup_videoFB.osexp","C:/Users/standalone/Desktop/Full Body Video 0411","no","mono","no","24","no","black","no","yes","female","768","Not sure","no","no","no","legacy","no","5","0","C:/Users/standalone/Desktop/Full Body Video 0411/subject-24.csv","[member6]","4","5","6","1","3","2","xpyriment","Jazzy James","3.1.6","0","2","legacy","1024","2","48000","-16","experiment","24","even","legacy","[target2]","absent","present","3390","227632","210927","227632","314408","393392","210927","NA","227550","NA","307657","NA","3312","3384","227628","391105","NA","NA","228750","227738","227714","227738","366159","393393","199144","227628","227632","NA","218787","NA","NA","3313","3312","3313","NA","366159","lineup1","no","6","no","1366"
"","white","no","xpyriment","legacy","legacy","0","no","relative","2","2","1","2","11","11","1","1","1","0","11","0","0","0","1","11","1","1","11","1","1","1","11","18","1","1","2","1","1","1","1","0","0","0","0","11","11/04/17 13:50:15","Executes Python code","yes","","lineup_videoFB.osexp","C:/Users/standalone/Desktop/Full Body Video 0411","no","mono","no","24","no","black","no","yes","female","768","Not sure","Yes","One","No","legacy","no","5","0","C:/Users/standalone/Desktop/Full Body Video 0411/subject-24.csv","[member6]","4","5","6","1","3","2","xpyriment","Jazzy James","3.1.6","0","2","legacy","1024","2","48000","-16","experiment","24","even","legacy","[target2]","absent","present","3390","227632","401658","227632","314408","393392","396539","401658","408805","NA","307657","NA","3312","3384","227628","391105","NA","NA","228750","227738","227714","227738","366159","408805","393446","227628","227632","396539","404284","NA","NA","3313","3312","3313","NA","366159","lineup1","no","6","no","1366"
"","white","no","xpyriment","legacy","legacy","0","no","relative","2","2","1","2","11","11","1","1","1","0","11","0","0","0","1","11","1","1","11","1","1","1","11","18","1","1","2","1","1","1","1","0","0","0","0","11","11/04/17 13:50:15","Executes Python code","yes","","lineup_videoFB.osexp","C:/Users/standalone/Desktop/Full Body Video 0411","no","mono","no","24","no","black","no","yes","female","768","Not sure","Yes","One","No","legacy","1pm","5","0","C:/Users/standalone/Desktop/Full Body Video 0411/subject-24.csv","[member6]","4","5","6","1","3","2","xpyriment","Jazzy James","3.1.6","0","2","legacy","1024","2","48000","-16","experiment","24","even","legacy","[target2]","absent","present","3390","227632","401658","227632","314408","393392","396539","401658","408805","411079","307657","411079","3312","3384","227628","391105","NA","NA","228750","227738","227714","227738","366159","411937","393446","227628","227632","396539","404284","NA","NA","3313","3312","3313","408879","366159","lineup1","no","6","no","1366"
