"_prepare","background","bidi","canvas_backend","clock_backend","color_backend","compensation","confidence_immediate","coordinates","count_TA_sequence_setting","count_TP_sequence_setting","count_admin_check","count_check_TP","count_check_confidence_imm","count_check_identification","count_check_made_identification","count_check_multiple_identification","count_check_proceeding_identification","count_check_time_of_exposure","count_confidence_imm","count_end_of_experiment","count_experiment","count_gender_lineup_loop","count_gender_randomization_sequence","count_identification_task","count_instructions_after_multiple","count_instructions_after_proceed_identification","count_instructions_before_view","count_lineup_loop","count_lineup_procedure_loop","count_lineup_procedure_sequence","count_lineup_sequence","count_logger","count_made_identification","count_member_randomization_loop","count_member_randomization_sequence","count_multiple_identification","count_proceed_identification","count_repeat_lineup_sequence_identification","count_repeat_lineup_sequence_multiple","count_target_setting","count_target_setting_loop","count_target_setting_sequence","count_time_of_exposure","count_video","datetime","description","disable_garbage_collection","empty_column","experiment_file","experiment_path","font_bold","font_family","font_italic","font_size","font_underline","foreground","form_clicks","fullscreen","gender","height","identification","identification_made","identification_multiple","identification_proceed","keyboard_backend","lecture_time","live_row","live_row_target_setting_loop","logfile","member","member1","member2","member3","member4","member5","member6","mouse_backend","opensesame_codename","opensesame_version","repeat_cycle","round_decimals","sampler_backend","sound_buf_size","sound_channels","sound_freq","sound_sample_size","start","subject_nr","subject_parity","synth_backend","target","target1","target2","time_TA_sequence_setting","time_TP_sequence_setting","time_admin_check","time_check_TP","time_check_confidence_imm","time_check_identification","time_check_made_identification","time_check_multiple_identification","time_check_proceeding_identification","time_check_time_of_exposure","time_confidence_imm","time_end_of_experiment","time_experiment","time_gender_lineup_loop","time_gender_randomization_sequence","time_identification_task","time_instructions_after_multiple","time_instructions_after_proceed_identification","time_instructions_before_view","time_lineup_loop","time_lineup_procedure_loop","time_lineup_procedure_sequence","time_lineup_sequence","time_logger","time_made_identification","time_member_randomization_loop","time_member_randomization_sequence","time_multiple_identification","time_proceed_identification","time_repeat_lineup_sequence_identification","time_repeat_lineup_sequence_multiple","time_target_setting","time_target_setting_loop","time_target_setting_sequence","time_time_of_exposure","time_video","title","transparent_variables","trial","uniform_coordinates","width"
"","white","no","xpyriment","legacy","legacy","0","NA","relative","NA","NA","NA","NA","NA","NA","NA","NA","NA","0","NA","0","0","0","NA","NA","NA","NA","NA","NA","NA","NA","NA","1","NA","NA","NA","NA","NA","NA","NA","0","0","0","0","NA","11/04/17 12:34:38","Executes Python code","yes","","lineup_videoFB.osexp","C:/Users/standalone/Desktop/Full Body Video 0411","no","mono","no","24","no","black","no","yes","NA","768","NA","NA","NA","NA","legacy","no","0","0","C:/Users/standalone/Desktop/Full Body Video 0411/subject-19.csv","NA","NA","NA","NA","NA","NA","NA","xpyriment","Jazzy James","3.1.6","0","2","legacy","1024","2","48000","-16","experiment","19","odd","legacy","NA","absent","present","NA","NA","NA","NA","NA","NA","NA","NA","NA","NA","NA","NA","3221","NA","NA","NA","NA","NA","NA","NA","NA","NA","NA","3223","NA","NA","NA","NA","NA","NA","NA","3223","3221","3223","NA","NA","lineup1","no","NA","no","1366"
"","white","no","xpyriment","legacy","legacy","0","NA","relative","0","0","NA","0","NA","NA","NA","NA","NA","0","NA","0","0","0","0","NA","NA","NA","NA","NA","0","NA","NA","2","NA","0","0","NA","NA","NA","NA","0","0","0","0","NA","11/04/17 12:34:38","Executes Python code","yes","","lineup_videoFB.osexp","C:/Users/standalone/Desktop/Full Body Video 0411","no","mono","no","24","no","black","no","yes","male","768","NA","NA","NA","NA","legacy","no","0","0","C:/Users/standalone/Desktop/Full Body Video 0411/subject-19.csv","NA","1","4","5","2","3","7","xpyriment","Jazzy James","3.1.6","0","2","legacy","1024","2","48000","-16","experiment","19","odd","legacy","[target1]","absent","present","3289","NA","NA","NA","NA","NA","NA","NA","NA","NA","NA","NA","3221","3282","3286","NA","NA","NA","NA","NA","NA","NA","NA","3289","NA","3287","3289","NA","NA","NA","NA","3223","3221","3223","NA","NA","lineup1","no","NA","no","1366"
"","white","no","xpyriment","legacy","legacy","0","no","relative","0","0","0","0","0","0","0","0","0","0","0","0","0","0","0","0","0","0","0","0","0","0","0","4","0","0","0","0","0","0","0","0","0","0","0","0","11/04/17 12:34:38","Executes Python code","yes","","lineup_videoFB.osexp","C:/Users/standalone/Desktop/Full Body Video 0411","no","mono","no","24","no","black","no","yes","male","768","Not sure","no","no","no","legacy","no","0","0","C:/Users/standalone/Desktop/Full Body Video 0411/subject-19.csv","[member1]","1","4","5","2","3","7","xpyriment","Jazzy James","3.1.6","0","2","legacy","1024","2","48000","-16","experiment","19","odd","legacy","[target1]","absent","present","3289","NA","NA","NA","NA","59602","NA","NA","NA","NA","NA","NA","3221","3282","3286","52682","NA","NA","4507","3354","3331","3354","4507","59602","NA","3287","3289","NA","NA","NA","NA","3223","3221","3223","NA","27541","lineup1","no","1","no","1366"
"","white","no","xpyriment","legacy","legacy","0","no","relative","0","0","0","0","1","1","0","0","0","0","1","0","0","0","0","1","0","0","1","0","0","0","1","5","0","0","0","0","0","0","0","0","0","0","0","1","11/04/17 12:34:38","Executes Python code","yes","","lineup_videoFB.osexp","C:/Users/standalone/Desktop/Full Body Video 0411","no","mono","no","24","no","black","no","yes","male","768","No","no","no","no","legacy","no","1","0","C:/Users/standalone/Desktop/Full Body Video 0411/subject-19.csv","[member2]","1","4","5","2","3","7","xpyriment","Jazzy James","3.1.6","0","2","legacy","1024","2","48000","-16","experiment","19","odd","legacy","[target1]","absent","present","3289","NA","NA","NA","NA","66851","NA","NA","NA","NA","NA","NA","3221","3282","3286","64059","NA","NA","4507","3354","3331","3354","60693","66851","NA","3287","3289","NA","NA","NA","NA","3223","3221","3223","NA","60693","lineup1","no","2","no","1366"
"","white","no","xpyriment","legacy","legacy","0","no","relative","0","0","0","0","2","2","0","0","0","0","2","0","0","0","0","2","0","0","2","0","0","0","2","6","0","0","0","0","0","0","0","0","0","0","0","2","11/04/17 12:34:38","Executes Python code","yes","","lineup_videoFB.osexp","C:/Users/standalone/Desktop/Full Body Video 0411","no","mono","no","24","no","black","no","yes","male","768","Not sure","no","no","no","legacy","no","2","0","C:/Users/standalone/Desktop/Full Body Video 0411/subject-19.csv","[member3]","1","4","5","2","3","7","xpyriment","Jazzy James","3.1.6","0","2","legacy","1024","2","48000","-16","experiment","19","odd","legacy","[target1]","absent","present","3289","NA","NA","NA","NA","81736","NA","NA","NA","NA","NA","NA","3221","3282","3286","78754","NA","NA","4507","3354","3331","3354","67886","81736","NA","3287","3289","NA","NA","NA","NA","3223","3221","3223","NA","67886","lineup1","no","3","no","1366"
"","white","no","xpyriment","legacy","legacy","0","no","relative","0","0","0","0","3","3","0","0","0","0","3","0","0","0","0","3","0","0","3","0","0","0","3","7","0","0","0","0","0","0","0","0","0","0","0","3","11/04/17 12:34:38","Executes Python code","yes","","lineup_videoFB.osexp","C:/Users/standalone/Desktop/Full Body Video 0411","no","mono","no","24","no","black","no","yes","male","768","No","no","no","no","legacy","no","3","0","C:/Users/standalone/Desktop/Full Body Video 0411/subject-19.csv","[member4]","1","4","5","2","3","7","xpyriment","Jazzy James","3.1.6","0","2","legacy","1024","2","48000","-16","experiment","19","odd","legacy","[target1]","absent","present","3289","NA","NA","NA","NA","87483","NA","NA","NA","NA","NA","NA","3221","3282","3286","84758","NA","NA","4507","3354","3331","3354","82801","87483","NA","3287","3289","NA","NA","NA","NA","3223","3221","3223","NA","82801","lineup1","no","4","no","1366"
"","white","no","xpyriment","legacy","legacy","0","no","relative","0","0","0","0","4","4","0","0","0","0","4","0","0","0","0","4","0","0","4","0","0","0","4","8","0","0","0","0","0","0","0","0","0","0","0","4","11/04/17 12:34:38","Executes Python code","yes","","lineup_videoFB.osexp","C:/Users/standalone/Desktop/Full Body Video 0411","no","mono","no","24","no","black","no","yes","male","768","Not sure","no","no","no","legacy","no","4","0","C:/Users/standalone/Desktop/Full Body Video 0411/subject-19.csv","[member5]","1","4","5","2","3","7","xpyriment","Jazzy James","3.1.6","0","2","legacy","1024","2","48000","-16","experiment","19","odd","legacy","[target1]","absent","present","3289","NA","NA","NA","NA","113577","NA","NA","NA","NA","NA","NA","3221","3282","3286","110803","NA","NA","4507","3354","3331","3354","88532","113577","NA","3287","3289","NA","NA","NA","NA","3223","3221","3223","NA","88532","lineup1","no","5","no","1366"
"","white","no","xpyriment","legacy","legacy","0","no","relative","0","0","0","0","5","5","0","0","0","0","5","0","0","0","0","5","0","0","5","0","0","0","5","9","0","0","0","0","0","0","0","0","0","0","0","5","11/04/17 12:34:38","Executes Python code","yes","","lineup_videoFB.osexp","C:/Users/standalone/Desktop/Full Body Video 0411","no","mono","no","24","no","black","no","yes","male","768","Not sure","no","no","no","legacy","no","5","0","C:/Users/standalone/Desktop/Full Body Video 0411/subject-19.csv","[member6]","1","4","5","2","3","7","xpyriment","Jazzy James","3.1.6","0","2","legacy","1024","2","48000","-16","experiment","19","odd","legacy","[target1]","absent","present","3289","NA","NA","NA","NA","142991","NA","NA","NA","NA","NA","NA","3221","3282","3286","140214","NA","NA","4507","3354","3331","3354","114655","142991","NA","3287","3289","NA","NA","NA","NA","3223","3221","3223","NA","114655","lineup1","no","6","no","1366"
"","white","no","xpyriment","legacy","legacy","0","no","relative","0","0","1","0","6","6","1","1","1","0","6","0","0","0","0","6","1","1","6","1","0","1","6","11","1","0","0","1","1","1","1","0","0","0","0","6","11/04/17 12:34:38","Executes Python code","yes","","lineup_videoFB.osexp","C:/Users/standalone/Desktop/Full Body Video 0411","no","mono","no","24","no","black","no","yes","male","768","No","no","no","no","legacy","no","0","0","C:/Users/standalone/Desktop/Full Body Video 0411/subject-19.csv","[member1]","1","4","5","2","3","7","xpyriment","Jazzy James","3.1.6","0","2","legacy","1024","2","48000","-16","experiment","19","odd","legacy","[target1]","absent","present","3289","NA","155244","NA","NA","198579","155244","NA","165440","NA","NA","NA","3221","3282","3286","195621","NA","165440","170623","169602","3331","169602","170623","198580","143039","3287","3289","NA","162863","169576","NA","3223","3221","3223","NA","173049","lineup1","no","1","no","1366"
"","white","no","xpyriment","legacy","legacy","0","no","relative","0","0","1","0","7","7","1","1","1","0","7","0","0","0","0","7","1","1","7","1","0","1","7","12","1","0","0","1","1","1","1","0","0","0","0","7","11/04/17 12:34:38","Executes Python code","yes","","lineup_videoFB.osexp","C:/Users/standalone/Desktop/Full Body Video 0411","no","mono","no","24","no","black","no","yes","male","768","No","no","no","no","legacy","no","1","0","C:/Users/standalone/Desktop/Full Body Video 0411/subject-19.csv","[member2]","1","4","5","2","3","7","xpyriment","Jazzy James","3.1.6","0","2","legacy","1024","2","48000","-16","experiment","19","odd","legacy","[target1]","absent","present","3289","NA","155244","NA","NA","203814","155244","NA","165440","NA","NA","NA","3221","3282","3286","201091","NA","165440","170623","169602","3331","169602","199641","203814","143039","3287","3289","NA","162863","169576","NA","3223","3221","3223","NA","199641","lineup1","no","2","no","1366"
"","white","no","xpyriment","legacy","legacy","0","no","relative","0","0","1","0","8","8","1","1","1","0","8","0","0","0","0","8","1","1","8","1","0","1","8","13","1","0","0","1","1","1","1","0","0","0","0","8","11/04/17 12:34:38","Executes Python code","yes","","lineup_videoFB.osexp","C:/Users/standalone/Desktop/Full Body Video 0411","no","mono","no","24","no","black","no","yes","male","768","No","no","no","no","legacy","no","2","0","C:/Users/standalone/Desktop/Full Body Video 0411/subject-19.csv","[member3]","1","4","5","2","3","7","xpyriment","Jazzy James","3.1.6","0","2","legacy","1024","2","48000","-16","experiment","19","odd","legacy","[target1]","absent","present","3289","NA","155244","NA","NA","209161","155244","NA","165440","NA","NA","NA","3221","3282","3286","206610","NA","165440","170623","169602","3331","169602","204851","209161","143039","3287","3289","NA","162863","169576","NA","3223","3221","3223","NA","204851","lineup1","no","3","no","1366"
"","white","no","xpyriment","legacy","legacy","0","no","relative","0","0","1","0","9","9","1","1","1","0","9","0","0","0","0","9","1","1","9","1","0","1","9","14","1","0","0","1","1","1","1","0","0","0","0","9","11/04/17 12:34:38","Executes Python code","yes","","lineup_videoFB.osexp","C:/Users/standalone/Desktop/Full Body Video 0411","no","mono","no","24","no","black","no","yes","male","768","No","no","no","no","legacy","no","3","0","C:/Users/standalone/Desktop/Full Body Video 0411/subject-19.csv","[member4]","1","4","5","2","3","7","xpyriment","Jazzy James","3.1.6","0","2","legacy","1024","2","48000","-16","experiment","19","odd","legacy","[target1]","absent","present","3289","NA","155244","NA","NA","213667","155244","NA","165440","NA","NA","NA","3221","3282","3286","211453","NA","165440","170623","169602","3331","169602","210246","213667","143039","3287","3289","NA","162863","169576","NA","3223","3221","3223","NA","210246","lineup1","no","4","no","1366"
"","white","no","xpyriment","legacy","legacy","0","no","relative","0","0","1","0","10","10","1","1","1","0","10","0","0","0","0","10","1","1","10","1","0","1","10","15","1","0","0","1","1","1","1","0","0","0","0","10","11/04/17 12:34:38","Executes Python code","yes","","lineup_videoFB.osexp","C:/Users/standalone/Desktop/Full Body Video 0411","no","mono","no","24","no","black","no","yes","male","768","No","no","no","no","legacy","no","4","0","C:/Users/standalone/Desktop/Full Body Video 0411/subject-19.csv","[member5]","1","4","5","2","3","7","xpyriment","Jazzy James","3.1.6","0","2","legacy","1024","2","48000","-16","experiment","19","odd","legacy","[target1]","absent","present","3289","NA","155244","NA","NA","219309","155244","NA","165440","NA","NA","NA","3221","3282","3286","216884","NA","165440","170623","169602","3331","169602","214717","219309","143039","3287","3289","NA","162863","169576","NA","3223","3221","3223","NA","214718","lineup1","no","5","no","1366"
"","white","no","xpyriment","legacy","legacy","0","no","relative","0","0","1","0","11","11","1","1","1","0","11","0","0","0","0","11","1","1","11","1","0","1","11","16","1","0","0","1","1","1","1","0","0","0","0","11","11/04/17 12:34:38","Executes Python code","yes","","lineup_videoFB.osexp","C:/Users/standalone/Desktop/Full Body Video 0411","no","mono","no","24","no","black","no","yes","male","768","No","no","no","no","legacy","no","5","0","C:/Users/standalone/Desktop/Full Body Video 0411/subject-19.csv","[member6]","1","4","5","2","3","7","xpyriment","Jazzy James","3.1.6","0","2","legacy","1024","2","48000","-16","experiment","19","odd","legacy","[target1]","absent","present","3289","NA","155244","NA","NA","224372","155244","NA","165440","NA","NA","NA","3221","3282","3286","222164","NA","165440","170623","169602","3331","169602","220384","224372","143039","3287","3289","NA","162863","169576","NA","3223","3221","3223","NA","220384","lineup1","no","6","no","1366"
"","white","no","xpyriment","legacy","legacy","0","no","relative","0","0","1","0","11","11","1","1","1","0","11","0","0","0","0","11","1","1","11","1","0","1","11","16","1","0","0","1","1","1","1","0","0","0","0","11","11/04/17 12:34:38","Executes Python code","yes","","lineup_videoFB.osexp","C:/Users/standalone/Desktop/Full Body Video 0411","no","mono","no","24","no","black","no","yes","male","768","No","No","no","No","legacy","no","5","0","C:/Users/standalone/Desktop/Full Body Video 0411/subject-19.csv","[member6]","1","4","5","2","3","7","xpyriment","Jazzy James","3.1.6","0","2","legacy","1024","2","48000","-16","experiment","19","odd","legacy","[target1]","absent","present","3289","NA","230530","NA","NA","224372","230530","NA","234051","NA","NA","NA","3221","3282","3286","222164","NA","165440","170623","169602","3331","169602","220384","234051","224425","3287","3289","NA","231765","169576","NA","3223","3221","3223","NA","220384","lineup1","no","6","no","1366"
"","white","no","xpyriment","legacy","legacy","0","no","relative","0","0","1","0","11","11","1","1","1","0","11","0","0","0","0","11","1","1","11","1","0","1","11","16","1","0","0","1","1","1","1","0","0","0","0","11","11/04/17 12:34:38","Executes Python code","yes","","lineup_videoFB.osexp","C:/Users/standalone/Desktop/Full Body Video 0411","no","mono","no","24","no","black","no","yes","male","768","No","No","no","No","legacy","no","5","0","C:/Users/standalone/Desktop/Full Body Video 0411/subject-19.csv","[member6]","1","4","5","2","3","7","xpyriment","Jazzy James","3.1.6","0","2","legacy","1024","2","48000","-16","experiment","19","odd","legacy","[target1]","absent","present","3289","NA","230530","NA","NA","224372","230530","NA","234051","NA","NA","NA","3221","3282","3286","222164","NA","165440","170623","169602","3331","169602","220384","234121","224425","3287","3289","NA","231765","169576","NA","3223","3221","3223","NA","220384","lineup1","no","6","no","1366"
"","white","no","xpyriment","legacy","legacy","0","no","relative","3","3","1","3","11","11","1","1","1","0","11","0","0","0","1","11","1","1","11","1","1","1","11","19","1","1","3","1","1","1","1","0","0","0","0","11","11/04/17 12:34:38","Executes Python code","yes","","lineup_videoFB.osexp","C:/Users/standalone/Desktop/Full Body Video 0411","no","mono","no","24","no","black","no","yes","female","768","No","No","no","No","legacy","no","0","0","C:/Users/standalone/Desktop/Full Body Video 0411/subject-19.csv","[member6]","5","3","1","2","4","6","xpyriment","Jazzy James","3.1.6","0","2","legacy","1024","2","48000","-16","experiment","19","odd","legacy","[target2]","absent","present","3289","234202","230530","234202","NA","224372","230530","NA","234051","NA","NA","NA","3221","3282","234195","222164","NA","165440","170623","169602","3331","169602","220384","234202","224425","234195","234202","NA","231765","169576","NA","3223","3221","3223","NA","220384","lineup1","no","6","no","1366"
"","white","no","xpyriment","legacy","legacy","0","no","relative","3","3","1","3","11","11","1","1","1","0","11","0","0","0","1","11","1","1","11","1","1","1","11","19","1","1","3","1","1","1","1","0","0","0","0","11","11/04/17 12:34:38","Executes Python code","yes","","lineup_videoFB.osexp","C:/Users/standalone/Desktop/Full Body Video 0411","no","mono","no","24","no","black","no","yes","female","768","No","No","no","No","legacy","no","0","0","C:/Users/standalone/Desktop/Full Body Video 0411/subject-19.csv","[member6]","5","3","1","2","4","6","xpyriment","Jazzy James","3.1.6","0","2","legacy","1024","2","48000","-16","experiment","19","odd","legacy","[target2]","absent","present","3289","234202","230530","234202","NA","224372","230530","NA","234051","NA","NA","NA","3221","3282","234195","222164","NA","165440","170623","169602","3331","169602","220384","234257","224425","234195","234202","NA","231765","169576","NA","3223","3221","3223","NA","220384","lineup1","no","6","no","1366"
"","white","no","xpyriment","legacy","legacy","0","no","relative","3","3","1","3","11","11","1","1","1","0","11","0","0","0","1","11","1","1","11","1","1","1","11","19","1","1","3","1","1","1","1","0","0","0","0","11","11/04/17 12:34:38","Executes Python code","yes","","lineup_videoFB.osexp","C:/Users/standalone/Desktop/Full Body Video 0411","no","mono","no","24","no","black","no","yes","female","768","No","No","no","No","legacy","no","0","0","C:/Users/standalone/Desktop/Full Body Video 0411/subject-19.csv","[member6]","5","3","1","2","4","6","xpyriment","Jazzy James","3.1.6","0","2","legacy","1024","2","48000","-16","experiment","19","odd","legacy","[target2]","absent","present","3289","234202","230530","234202","NA","224372","230530","NA","234051","NA","NA","NA","3221","3282","234195","222164","NA","165440","170623","169602","3331","169602","220384","234303","224425","234195","234202","NA","231765","169576","NA","3223","3221","3223","NA","220384","lineup1","no","6","no","1366"
"","white","no","xpyriment","legacy","legacy","0","no","relative","3","3","2","3","12","12","2","2","2","0","12","0","0","0","1","12","2","2","12","2","1","2","12","21","2","1","3","2","2","2","2","0","0","0","0","12","11/04/17 12:34:38","Executes Python code","yes","","lineup_videoFB.osexp","C:/Users/standalone/Desktop/Full Body Video 0411","no","mono","no","24","no","black","no","yes","female","768","Not sure","no","no","no","legacy","no","0","0","C:/Users/standalone/Desktop/Full Body Video 0411/subject-19.csv","[member1]","5","3","1","2","4","6","xpyriment","Jazzy James","3.1.6","0","2","legacy","1024","2","48000","-16","experiment","19","odd","legacy","[target2]","absent","present","3289","234202","230530","234202","NA","262188","230530","NA","234051","NA","NA","NA","3221","3282","234195","259919","NA","165440","235340","234373","234347","234373","235340","262189","224425","234195","234202","NA","231765","169576","NA","3223","3221","3223","NA","238060","lineup1","no","1","no","1366"
"","white","no","xpyriment","legacy","legacy","0","no","relative","3","3","2","3","13","13","2","2","2","0","13","0","0","0","1","13","2","2","13","2","1","2","13","22","2","1","3","2","2","2","2","0","0","0","0","13","11/04/17 12:34:38","Executes Python code","yes","","lineup_videoFB.osexp","C:/Users/standalone/Desktop/Full Body Video 0411","no","mono","no","24","no","black","no","yes","female","768","No","no","no","no","legacy","no","1","0","C:/Users/standalone/Desktop/Full Body Video 0411/subject-19.csv","[member2]","5","3","1","2","4","6","xpyriment","Jazzy James","3.1.6","0","2","legacy","1024","2","48000","-16","experiment","19","odd","legacy","[target2]","absent","present","3289","234202","230530","234202","NA","266423","230530","NA","234051","NA","NA","NA","3221","3282","234195","264550","NA","165440","235340","234373","234347","234373","263251","266424","224425","234195","234202","NA","231765","169576","NA","3223","3221","3223","NA","263252","lineup1","no","2","no","1366"
"","white","no","xpyriment","legacy","legacy","0","no","relative","3","3","2","3","14","14","2","2","2","0","14","0","0","0","1","14","2","2","14","2","1","2","14","23","2","1","3","2","2","2","2","0","0","0","0","14","11/04/17 12:34:38","Executes Python code","yes","","lineup_videoFB.osexp","C:/Users/standalone/Desktop/Full Body Video 0411","no","mono","no","24","no","black","no","yes","female","768","No","no","no","no","legacy","no","2","0","C:/Users/standalone/Desktop/Full Body Video 0411/subject-19.csv","[member3]","5","3","1","2","4","6","xpyriment","Jazzy James","3.1.6","0","2","legacy","1024","2","48000","-16","experiment","19","odd","legacy","[target2]","absent","present","3289","234202","230530","234202","NA","271780","230530","NA","234051","NA","NA","NA","3221","3282","234195","268707","NA","165440","235340","234373","234347","234373","267409","271780","224425","234195","234202","NA","231765","169576","NA","3223","3221","3223","NA","267409","lineup1","no","3","no","1366"
"","white","no","xpyriment","legacy","legacy","0","no","relative","3","3","2","3","15","15","2","2","2","0","15","0","0","0","1","15","2","2","15","2","1","2","15","24","2","1","3","2","2","2","2","0","0","0","0","15","11/04/17 12:34:38","Executes Python code","yes","","lineup_videoFB.osexp","C:/Users/standalone/Desktop/Full Body Video 0411","no","mono","no","24","no","black","no","yes","female","768","No","no","no","no","legacy","no","3","0","C:/Users/standalone/Desktop/Full Body Video 0411/subject-19.csv","[member4]","5","3","1","2","4","6","xpyriment","Jazzy James","3.1.6","0","2","legacy","1024","2","48000","-16","experiment","19","odd","legacy","[target2]","absent","present","3289","234202","230530","234202","NA","276025","230530","NA","234051","NA","NA","NA","3221","3282","234195","273973","NA","165440","235340","234373","234347","234373","272826","276025","224425","234195","234202","NA","231765","169576","NA","3223","3221","3223","NA","272826","lineup1","no","4","no","1366"
"","white","no","xpyriment","legacy","legacy","0","no","relative","3","3","2","3","16","16","2","2","2","0","16","0","0","0","1","16","2","2","16","2","1","2","16","25","2","1","3","2","2","2","2","0","0","0","0","16","11/04/17 12:34:38","Executes Python code","yes","","lineup_videoFB.osexp","C:/Users/standalone/Desktop/Full Body Video 0411","no","mono","no","24","no","black","no","yes","female","768","No","no","no","no","legacy","no","4","0","C:/Users/standalone/Desktop/Full Body Video 0411/subject-19.csv","[member5]","5","3","1","2","4","6","xpyriment","Jazzy James","3.1.6","0","2","legacy","1024","2","48000","-16","experiment","19","odd","legacy","[target2]","absent","present","3289","234202","230530","234202","NA","280441","230530","NA","234051","NA","NA","NA","3221","3282","234195","278223","NA","165440","235340","234373","234347","234373","277098","280441","224425","234195","234202","NA","231765","169576","NA","3223","3221","3223","NA","277098","lineup1","no","5","no","1366"
"","white","no","xpyriment","legacy","legacy","0","no","relative","3","3","2","3","17","17","2","2","2","0","17","0","0","0","1","17","2","2","17","2","1","2","17","26","2","1","3","2","2","2","2","0","0","0","0","17","11/04/17 12:34:38","Executes Python code","yes","","lineup_videoFB.osexp","C:/Users/standalone/Desktop/Full Body Video 0411","no","mono","no","24","no","black","no","yes","female","768","No","no","no","no","legacy","no","5","0","C:/Users/standalone/Desktop/Full Body Video 0411/subject-19.csv","[member6]","5","3","1","2","4","6","xpyriment","Jazzy James","3.1.6","0","2","legacy","1024","2","48000","-16","experiment","19","odd","legacy","[target2]","absent","present","3289","234202","230530","234202","NA","286156","230530","NA","234051","NA","NA","NA","3221","3282","234195","283429","NA","165440","235340","234373","234347","234373","281519","286156","224425","234195","234202","NA","231765","169576","NA","3223","3221","3223","NA","281519","lineup1","no","6","no","1366"
"","white","no","xpyriment","legacy","legacy","0","80","relative","3","3","3","3","18","18","3","3","3","0","18","0","0","0","1","18","3","3","18","3","1","3","18","28","3","1","3","3","3","3","3","0","0","0","0","18","11/04/17 12:34:38","Executes Python code","yes","","lineup_videoFB.osexp","C:/Users/standalone/Desktop/Full Body Video 0411","no","mono","no","24","no","black","no","yes","female","768","Yes","no","no","no","legacy","no","0","0","C:/Users/standalone/Desktop/Full Body Video 0411/subject-19.csv","[member1]","5","3","1","2","4","6","xpyriment","Jazzy James","3.1.6","0","2","legacy","1024","2","48000","-16","experiment","19","odd","legacy","[target2]","absent","present","3289","234202","289871","234202","317770","304836","289871","NA","294444","NA","304836","NA","3221","3282","234195","300205","NA","294444","297087","296110","234347","296110","297087","317770","286236","234195","234202","NA","292162","296083","NA","3223","3221","3223","NA","299180","lineup1","no","1","no","1366"
"","white","no","xpyriment","legacy","legacy","0","no","relative","3","3","3","3","19","19","3","3","3","0","19","0","0","0","1","19","3","3","19","3","1","3","19","29","3","1","3","3","3","3","3","0","0","0","0","19","11/04/17 12:34:38","Executes Python code","yes","","lineup_videoFB.osexp","C:/Users/standalone/Desktop/Full Body Video 0411","no","mono","no","24","no","black","no","yes","female","768","No","no","no","no","legacy","no","1","0","C:/Users/standalone/Desktop/Full Body Video 0411/subject-19.csv","[member2]","5","3","1","2","4","6","xpyriment","Jazzy James","3.1.6","0","2","legacy","1024","2","48000","-16","experiment","19","odd","legacy","[target2]","absent","present","3289","234202","289871","234202","317770","324643","289871","NA","294444","NA","304836","NA","3221","3282","234195","322205","NA","294444","297087","296110","234347","296110","318860","324643","286236","234195","234202","NA","292162","296083","NA","3223","3221","3223","NA","318860","lineup1","no","2","no","1366"
"","white","no","xpyriment","legacy","legacy","0","no","relative","3","3","3","3","20","20","3","3","3","0","20","0","0","0","1","20","3","3","20","3","1","3","20","30","3","1","3","3","3","3","3","0","0","0","0","20","11/04/17 12:34:38","Executes Python code","yes","","lineup_videoFB.osexp","C:/Users/standalone/Desktop/Full Body Video 0411","no","mono","no","24","no","black","no","yes","female","768","No","no","no","no","legacy","no","2","0","C:/Users/standalone/Desktop/Full Body Video 0411/subject-19.csv","[member3]","5","3","1","2","4","6","xpyriment","Jazzy James","3.1.6","0","2","legacy","1024","2","48000","-16","experiment","19","odd","legacy","[target2]","absent","present","3289","234202","289871","234202","317770","329339","289871","NA","294444","NA","304836","NA","3221","3282","234195","326446","NA","294444","297087","296110","234347","296110","325654","329340","286236","234195","234202","NA","292162","296083","NA","3223","3221","3223","NA","325655","lineup1","no","3","no","1366"
"","white","no","xpyriment","legacy","legacy","0","no","relative","3","3","3","3","21","21","3","3","3","0","21","0","0","0","1","21","3","3","21","3","1","3","21","31","3","1","3","3","3","3","3","0","0","0","0","21","11/04/17 12:34:38","Executes Python code","yes","","lineup_videoFB.osexp","C:/Users/standalone/Desktop/Full Body Video 0411","no","mono","no","24","no","black","no","yes","female","768","No","no","no","no","legacy","no","3","0","C:/Users/standalone/Desktop/Full Body Video 0411/subject-19.csv","[member4]","5","3","1","2","4","6","xpyriment","Jazzy James","3.1.6","0","2","legacy","1024","2","48000","-16","experiment","19","odd","legacy","[target2]","absent","present","3289","234202","289871","234202","317770","333809","289871","NA","294444","NA","304836","NA","3221","3282","234195","331075","NA","294444","297087","296110","234347","296110","330393","333809","286236","234195","234202","NA","292162","296083","NA","3223","3221","3223","NA","330393","lineup1","no","4","no","1366"
"","white","no","xpyriment","legacy","legacy","0","no","relative","3","3","3","3","22","22","3","3","3","0","22","0","0","0","1","22","3","3","22","3","1","3","22","32","3","1","3","3","3","3","3","0","0","0","0","22","11/04/17 12:34:38","Executes Python code","yes","","lineup_videoFB.osexp","C:/Users/standalone/Desktop/Full Body Video 0411","no","mono","no","24","no","black","no","yes","female","768","No","no","no","no","legacy","no","4","0","C:/Users/standalone/Desktop/Full Body Video 0411/subject-19.csv","[member5]","5","3","1","2","4","6","xpyriment","Jazzy James","3.1.6","0","2","legacy","1024","2","48000","-16","experiment","19","odd","legacy","[target2]","absent","present","3289","234202","289871","234202","317770","337714","289871","NA","294444","NA","304836","NA","3221","3282","234195","335498","NA","294444","297087","296110","234347","296110","334882","337714","286236","234195","234202","NA","292162","296083","NA","3223","3221","3223","NA","334882","lineup1","no","5","no","1366"
"","white","no","xpyriment","legacy","legacy","0","no","relative","3","3","3","3","23","23","3","3","3","0","23","0","0","0","1","23","3","3","23","3","1","3","23","33","3","1","3","3","3","3","3","0","0","0","0","23","11/04/17 12:34:38","Executes Python code","yes","","lineup_videoFB.osexp","C:/Users/standalone/Desktop/Full Body Video 0411","no","mono","no","24","no","black","no","yes","female","768","No","no","no","no","legacy","no","5","0","C:/Users/standalone/Desktop/Full Body Video 0411/subject-19.csv","[member6]","5","3","1","2","4","6","xpyriment","Jazzy James","3.1.6","0","2","legacy","1024","2","48000","-16","experiment","19","odd","legacy","[target2]","absent","present","3289","234202","289871","234202","317770","341941","289871","NA","294444","NA","304836","NA","3221","3282","234195","339559","NA","294444","297087","296110","234347","296110","338771","341941","286236","234195","234202","NA","292162","296083","NA","3223","3221","3223","NA","338772","lineup1","no","6","no","1366"
"","white","no","xpyriment","legacy","legacy","0","no","relative","3","3","3","3","23","23","3","3","3","0","23","0","0","0","1","23","3","3","23","3","1","3","23","33","3","1","3","3","3","3","3","0","0","0","0","23","11/04/17 12:34:38","Executes Python code","yes","","lineup_videoFB.osexp","C:/Users/standalone/Desktop/Full Body Video 0411","no","mono","no","24","no","black","no","yes","female","768","No","Yes","One","No","legacy","no","5","0","C:/Users/standalone/Desktop/Full Body Video 0411/subject-19.csv","[member6]","5","3","1","2","4","6","xpyriment","Jazzy James","3.1.6","0","2","legacy","1024","2","48000","-16","experiment","19","odd","legacy","[target2]","absent","present","3289","234202","356471","234202","317770","341941","350232","356471","363045","NA","304836","NA","3221","3282","234195","339559","NA","294444","297087","296110","234347","296110","338771","363045","341996","234195","234202","350233","361048","296083","NA","3223","3221","3223","NA","338772","lineup1","no","6","no","1366"
"","white","no","xpyriment","legacy","legacy","0","no","relative","3","3","3","3","23","23","3","3","3","0","23","0","0","0","1","23","3","3","23","3","1","3","23","33","3","1","3","3","3","3","3","0","0","0","0","23","11/04/17 12:34:38","Executes Python code","yes","","lineup_videoFB.osexp","C:/Users/standalone/Desktop/Full Body Video 0411","no","mono","no","24","no","black","no","yes","female","768","No","Yes","One","No","legacy","no","5","0","C:/Users/standalone/Desktop/Full Body Video 0411/subject-19.csv","[member6]","5","3","1","2","4","6","xpyriment","Jazzy James","3.1.6","0","2","legacy","1024","2","48000","-16","experiment","19","odd","legacy","[target2]","absent","present","3289","234202","356471","234202","317770","341941","350232","356471","363045","NA","304836","NA","3221","3282","234195","339559","NA","294444","297087","296110","234347","296110","338771","363094","341996","234195","234202","350233","361048","296083","NA","3223","3221","3223","NA","338772","lineup1","no","6","no","1366"
"","white","no","xpyriment","legacy","legacy","0","no","relative","3","3","3","3","23","23","3","3","3","0","23","0","0","0","1","23","3","3","23","3","1","3","23","33","3","1","3","3","3","3","3","0","0","0","0","23","11/04/17 12:34:38","Executes Python code","yes","","lineup_videoFB.osexp","C:/Users/standalone/Desktop/Full Body Video 0411","no","mono","no","24","no","black","no","yes","female","768","No","Yes","One","No","legacy","11am","5","0","C:/Users/standalone/Desktop/Full Body Video 0411/subject-19.csv","[member6]","5","3","1","2","4","6","xpyriment","Jazzy James","3.1.6","0","2","legacy","1024","2","48000","-16","experiment","19","odd","legacy","[target2]","absent","present","3289","234202","356471","234202","317770","341941","350232","356471","363045","366080","304836","366080","3221","3282","234195","339559","NA","294444","297087","296110","234347","296110","338771","3248031","341996","234195","234202","350233","361048","296083","NA","3223","3221","3223","363185","338772","lineup1","no","6","no","1366"
