"_prepare","background","bidi","canvas_backend","clock_backend","color_backend","compensation","confidence_immediate","coordinates","count_TA_sequence_setting","count_TP_sequence_setting","count_admin_check","count_check_TP","count_check_confidence_imm","count_check_identification","count_check_made_identification","count_check_multiple_identification","count_check_proceeding_identification","count_check_time_of_exposure","count_confidence_imm","count_end_of_experiment","count_experiment","count_gender_lineup_loop","count_gender_randomization_sequence","count_identification_task","count_instructions_after_multiple","count_instructions_after_proceed_identification","count_instructions_before_view","count_lineup_loop","count_lineup_procedure_loop","count_lineup_procedure_sequence","count_lineup_sequence","count_logger","count_made_identification","count_member_randomization_loop","count_member_randomization_sequence","count_multiple_identification","count_proceed_identification","count_repeat_lineup_sequence_identification","count_repeat_lineup_sequence_multiple","count_target_setting","count_target_setting_loop","count_target_setting_sequence","count_time_of_exposure","count_video","datetime","description","disable_garbage_collection","empty_column","experiment_file","experiment_path","font_bold","font_family","font_italic","font_size","font_underline","foreground","form_clicks","fullscreen","gender","height","identification","identification_made","identification_multiple","identification_proceed","keyboard_backend","lecture_time","live_row","live_row_target_setting_loop","logfile","member","member1","member2","member3","member4","member5","member6","mouse_backend","opensesame_codename","opensesame_version","repeat_cycle","round_decimals","sampler_backend","sound_buf_size","sound_channels","sound_freq","sound_sample_size","start","subject_nr","subject_parity","synth_backend","target","target1","target2","time_TA_sequence_setting","time_TP_sequence_setting","time_admin_check","time_check_TP","time_check_confidence_imm","time_check_identification","time_check_made_identification","time_check_multiple_identification","time_check_proceeding_identification","time_check_time_of_exposure","time_confidence_imm","time_end_of_experiment","time_experiment","time_gender_lineup_loop","time_gender_randomization_sequence","time_identification_task","time_instructions_after_multiple","time_instructions_after_proceed_identification","time_instructions_before_view","time_lineup_loop","time_lineup_procedure_loop","time_lineup_procedure_sequence","time_lineup_sequence","time_logger","time_made_identification","time_member_randomization_loop","time_member_randomization_sequence","time_multiple_identification","time_proceed_identification","time_repeat_lineup_sequence_identification","time_repeat_lineup_sequence_multiple","time_target_setting","time_target_setting_loop","time_target_setting_sequence","time_time_of_exposure","time_video","title","transparent_variables","trial","uniform_coordinates","width"
"","white","no","xpyriment","legacy","legacy","0","NA","relative","NA","NA","NA","NA","NA","NA","NA","NA","NA","0","NA","0","0","0","NA","NA","NA","NA","NA","NA","NA","NA","NA","1","NA","NA","NA","NA","NA","NA","NA","0","0","0","0","NA","11/04/17 11:46:01","Executes Python code","yes","","lineup_videoFB.osexp","C:/Users/standalone/Desktop/Full Body Video 0411","no","mono","no","24","no","black","no","yes","NA","768","NA","NA","NA","NA","legacy","no","0","0","C:/Users/standalone/Desktop/Full Body Video 0411/subject-7.csv","NA","NA","NA","NA","NA","NA","NA","xpyriment","Jazzy James","3.1.6","0","2","legacy","1024","2","48000","-16","experiment","7","odd","legacy","NA","present","absent","NA","NA","NA","NA","NA","NA","NA","NA","NA","NA","NA","NA","2726","NA","NA","NA","NA","NA","NA","NA","NA","NA","NA","2728","NA","NA","NA","NA","NA","NA","NA","2728","2726","2728","NA","NA","lineup1","no","NA","no","1366"
"","white","no","xpyriment","legacy","legacy","0","NA","relative","0","0","NA","0","NA","NA","NA","NA","NA","0","NA","0","0","0","0","NA","NA","NA","NA","NA","0","NA","NA","2","NA","0","0","NA","NA","NA","NA","0","0","0","0","NA","11/04/17 11:46:01","Executes Python code","yes","","lineup_videoFB.osexp","C:/Users/standalone/Desktop/Full Body Video 0411","no","mono","no","24","no","black","no","yes","female","768","NA","NA","NA","NA","legacy","no","0","0","C:/Users/standalone/Desktop/Full Body Video 0411/subject-7.csv","NA","2","4","3","1","5","7","xpyriment","Jazzy James","3.1.6","0","2","legacy","1024","2","48000","-16","experiment","7","odd","legacy","[target2]","present","absent","2798","NA","NA","NA","NA","NA","NA","NA","NA","NA","NA","NA","2726","2792","2796","NA","NA","NA","NA","NA","NA","NA","NA","2798","NA","2796","2798","NA","NA","NA","NA","2728","2726","2728","NA","NA","lineup1","no","NA","no","1366"
"","white","no","xpyriment","legacy","legacy","0","no","relative","0","0","0","0","0","0","0","0","0","0","0","0","0","0","0","0","0","0","0","0","0","0","0","4","0","0","0","0","0","0","0","0","0","0","0","0","11/04/17 11:46:01","Executes Python code","yes","","lineup_videoFB.osexp","C:/Users/standalone/Desktop/Full Body Video 0411","no","mono","no","24","no","black","no","yes","female","768","No","no","no","no","legacy","no","0","0","C:/Users/standalone/Desktop/Full Body Video 0411/subject-7.csv","[member1]","2","4","3","1","5","7","xpyriment","Jazzy James","3.1.6","0","2","legacy","1024","2","48000","-16","experiment","7","odd","legacy","[target2]","present","absent","2798","NA","NA","NA","NA","66535","NA","NA","NA","NA","NA","NA","2726","2792","2796","61570","NA","NA","4009","2869","2843","2869","4009","66535","NA","2796","2798","NA","NA","NA","NA","2728","2726","2728","NA","43624","lineup1","no","1","no","1366"
"","white","no","xpyriment","legacy","legacy","0","no","relative","0","0","0","0","1","1","0","0","0","0","1","0","0","0","0","1","0","0","1","0","0","0","1","5","0","0","0","0","0","0","0","0","0","0","0","1","11/04/17 11:46:01","Executes Python code","yes","","lineup_videoFB.osexp","C:/Users/standalone/Desktop/Full Body Video 0411","no","mono","no","24","no","black","no","yes","female","768","No","no","no","no","legacy","no","1","0","C:/Users/standalone/Desktop/Full Body Video 0411/subject-7.csv","[member2]","2","4","3","1","5","7","xpyriment","Jazzy James","3.1.6","0","2","legacy","1024","2","48000","-16","experiment","7","odd","legacy","[target2]","present","absent","2798","NA","NA","NA","NA","76278","NA","NA","NA","NA","NA","NA","2726","2792","2796","72499","NA","NA","4009","2869","2843","2869","67593","76278","NA","2796","2798","NA","NA","NA","NA","2728","2726","2728","NA","67594","lineup1","no","2","no","1366"
"","white","no","xpyriment","legacy","legacy","0","no","relative","0","0","0","0","2","2","0","0","0","0","2","0","0","0","0","2","0","0","2","0","0","0","2","6","0","0","0","0","0","0","0","0","0","0","0","2","11/04/17 11:46:01","Executes Python code","yes","","lineup_videoFB.osexp","C:/Users/standalone/Desktop/Full Body Video 0411","no","mono","no","24","no","black","no","yes","female","768","Not sure","no","no","no","legacy","no","2","0","C:/Users/standalone/Desktop/Full Body Video 0411/subject-7.csv","[member3]","2","4","3","1","5","7","xpyriment","Jazzy James","3.1.6","0","2","legacy","1024","2","48000","-16","experiment","7","odd","legacy","[target2]","present","absent","2798","NA","NA","NA","NA","94780","NA","NA","NA","NA","NA","NA","2726","2792","2796","90996","NA","NA","4009","2869","2843","2869","77354","94780","NA","2796","2798","NA","NA","NA","NA","2728","2726","2728","NA","77355","lineup1","no","3","no","1366"
"","white","no","xpyriment","legacy","legacy","0","no","relative","0","0","0","0","3","3","0","0","0","0","3","0","0","0","0","3","0","0","3","0","0","0","3","7","0","0","0","0","0","0","0","0","0","0","0","3","11/04/17 11:46:01","Executes Python code","yes","","lineup_videoFB.osexp","C:/Users/standalone/Desktop/Full Body Video 0411","no","mono","no","24","no","black","no","yes","female","768","Not sure","no","no","no","legacy","no","3","0","C:/Users/standalone/Desktop/Full Body Video 0411/subject-7.csv","[member4]","2","4","3","1","5","7","xpyriment","Jazzy James","3.1.6","0","2","legacy","1024","2","48000","-16","experiment","7","odd","legacy","[target2]","present","absent","2798","NA","NA","NA","NA","119964","NA","NA","NA","NA","NA","NA","2726","2792","2796","115672","NA","NA","4009","2869","2843","2869","95767","119964","NA","2796","2798","NA","NA","NA","NA","2728","2726","2728","NA","95768","lineup1","no","4","no","1366"
"","white","no","xpyriment","legacy","legacy","0","no","relative","0","0","0","0","4","4","0","0","0","0","4","0","0","0","0","4","0","0","4","0","0","0","4","8","0","0","0","0","0","0","0","0","0","0","0","4","11/04/17 11:46:01","Executes Python code","yes","","lineup_videoFB.osexp","C:/Users/standalone/Desktop/Full Body Video 0411","no","mono","no","24","no","black","no","yes","female","768","No","no","no","no","legacy","no","4","0","C:/Users/standalone/Desktop/Full Body Video 0411/subject-7.csv","[member5]","2","4","3","1","5","7","xpyriment","Jazzy James","3.1.6","0","2","legacy","1024","2","48000","-16","experiment","7","odd","legacy","[target2]","present","absent","2798","NA","NA","NA","NA","136951","NA","NA","NA","NA","NA","NA","2726","2792","2796","134319","NA","NA","4009","2869","2843","2869","120964","136951","NA","2796","2798","NA","NA","NA","NA","2728","2726","2728","NA","120964","lineup1","no","5","no","1366"
"","white","no","xpyriment","legacy","legacy","0","no","relative","0","0","0","0","5","5","0","0","0","0","5","0","0","0","0","5","0","0","5","0","0","0","5","9","0","0","0","0","0","0","0","0","0","0","0","5","11/04/17 11:46:01","Executes Python code","yes","","lineup_videoFB.osexp","C:/Users/standalone/Desktop/Full Body Video 0411","no","mono","no","24","no","black","no","yes","female","768","No","no","no","no","legacy","no","5","0","C:/Users/standalone/Desktop/Full Body Video 0411/subject-7.csv","[member6]","2","4","3","1","5","7","xpyriment","Jazzy James","3.1.6","0","2","legacy","1024","2","48000","-16","experiment","7","odd","legacy","[target2]","present","absent","2798","NA","NA","NA","NA","161399","NA","NA","NA","NA","NA","NA","2726","2792","2796","158168","NA","NA","4009","2869","2843","2869","137956","161399","NA","2796","2798","NA","NA","NA","NA","2728","2726","2728","NA","137956","lineup1","no","6","no","1366"
"","white","no","xpyriment","legacy","legacy","0","no","relative","0","0","0","0","5","5","0","0","0","0","5","0","0","0","0","5","0","0","5","0","0","0","5","9","0","0","0","0","0","0","0","0","0","0","0","5","11/04/17 11:46:01","Executes Python code","yes","","lineup_videoFB.osexp","C:/Users/standalone/Desktop/Full Body Video 0411","no","mono","no","24","no","black","no","yes","female","768","No","No","no","No","legacy","no","5","0","C:/Users/standalone/Desktop/Full Body Video 0411/subject-7.csv","[member6]","2","4","3","1","5","7","xpyriment","Jazzy James","3.1.6","0","2","legacy","1024","2","48000","-16","experiment","7","odd","legacy","[target2]","present","absent","2798","NA","166315","NA","NA","161399","166315","NA","195007","NA","NA","NA","2726","2792","2796","158168","NA","NA","4009","2869","2843","2869","137956","195007","161449","2796","2798","NA","190506","NA","NA","2728","2726","2728","NA","137956","lineup1","no","6","no","1366"
"","white","no","xpyriment","legacy","legacy","0","no","relative","2","2","0","2","5","5","0","0","0","0","5","0","0","0","1","5","0","0","5","0","1","0","5","11","0","1","2","0","0","0","0","0","0","0","0","5","11/04/17 11:46:01","Executes Python code","yes","","lineup_videoFB.osexp","C:/Users/standalone/Desktop/Full Body Video 0411","no","mono","no","24","no","black","no","yes","male","768","No","No","no","No","legacy","no","0","0","C:/Users/standalone/Desktop/Full Body Video 0411/subject-7.csv","[member6]","4","5","2","6","1","3","xpyriment","Jazzy James","3.1.6","0","2","legacy","1024","2","48000","-16","experiment","7","odd","legacy","[target1]","present","absent","2798","195074","166315","195074","NA","161399","166315","NA","195007","NA","NA","NA","2726","2792","195070","158168","NA","NA","4009","2869","2843","2869","137956","195074","161449","195070","195074","NA","190506","NA","NA","2728","2726","2728","NA","137956","lineup1","no","6","no","1366"
"","white","no","xpyriment","legacy","legacy","0","no","relative","2","2","0","2","5","5","0","0","0","0","5","0","0","0","1","5","0","0","5","0","1","0","5","11","0","1","2","0","0","0","0","0","0","0","0","5","11/04/17 11:46:01","Executes Python code","yes","","lineup_videoFB.osexp","C:/Users/standalone/Desktop/Full Body Video 0411","no","mono","no","24","no","black","no","yes","male","768","No","No","no","No","legacy","no","0","0","C:/Users/standalone/Desktop/Full Body Video 0411/subject-7.csv","[member6]","4","5","2","6","1","3","xpyriment","Jazzy James","3.1.6","0","2","legacy","1024","2","48000","-16","experiment","7","odd","legacy","[target1]","present","absent","2798","195074","166315","195074","NA","161399","166315","NA","195007","NA","NA","NA","2726","2792","195070","158168","NA","NA","4009","2869","2843","2869","137956","195114","161449","195070","195074","NA","190506","NA","NA","2728","2726","2728","NA","137956","lineup1","no","6","no","1366"
"","white","no","xpyriment","legacy","legacy","0","no","relative","2","2","1","2","6","6","1","1","1","0","6","0","0","0","1","6","1","1","6","1","1","1","6","13","1","1","2","1","1","1","1","0","0","0","0","6","11/04/17 11:46:01","Executes Python code","yes","","lineup_videoFB.osexp","C:/Users/standalone/Desktop/Full Body Video 0411","no","mono","no","24","no","black","no","yes","male","768","No","no","no","no","legacy","no","0","0","C:/Users/standalone/Desktop/Full Body Video 0411/subject-7.csv","[member1]","4","5","2","6","1","3","xpyriment","Jazzy James","3.1.6","0","2","legacy","1024","2","48000","-16","experiment","7","odd","legacy","[target1]","present","absent","2798","195074","166315","195074","NA","208603","166315","NA","195007","NA","NA","NA","2726","2792","195070","205827","NA","NA","196183","195170","195144","195170","196183","208603","161449","195070","195074","NA","190506","NA","NA","2728","2726","2728","NA","197379","lineup1","no","1","no","1366"
"","white","no","xpyriment","legacy","legacy","0","no","relative","2","2","1","2","7","7","1","1","1","0","7","0","0","0","1","7","1","1","7","1","1","1","7","14","1","1","2","1","1","1","1","0","0","0","0","7","11/04/17 11:46:01","Executes Python code","yes","","lineup_videoFB.osexp","C:/Users/standalone/Desktop/Full Body Video 0411","no","mono","no","24","no","black","no","yes","male","768","No","no","no","no","legacy","no","1","0","C:/Users/standalone/Desktop/Full Body Video 0411/subject-7.csv","[member2]","4","5","2","6","1","3","xpyriment","Jazzy James","3.1.6","0","2","legacy","1024","2","48000","-16","experiment","7","odd","legacy","[target1]","present","absent","2798","195074","166315","195074","NA","223806","166315","NA","195007","NA","NA","NA","2726","2792","195070","220888","NA","NA","196183","195170","195144","195170","209647","223806","161449","195070","195074","NA","190506","NA","NA","2728","2726","2728","NA","209648","lineup1","no","2","no","1366"
"","white","no","xpyriment","legacy","legacy","0","no","relative","2","2","1","2","8","8","1","1","1","0","8","0","0","0","1","8","1","1","8","1","1","1","8","15","1","1","2","1","1","1","1","0","0","0","0","8","11/04/17 11:46:01","Executes Python code","yes","","lineup_videoFB.osexp","C:/Users/standalone/Desktop/Full Body Video 0411","no","mono","no","24","no","black","no","yes","male","768","No","no","no","no","legacy","no","2","0","C:/Users/standalone/Desktop/Full Body Video 0411/subject-7.csv","[member3]","4","5","2","6","1","3","xpyriment","Jazzy James","3.1.6","0","2","legacy","1024","2","48000","-16","experiment","7","odd","legacy","[target1]","present","absent","2798","195074","166315","195074","NA","237650","166315","NA","195007","NA","NA","NA","2726","2792","195070","234721","NA","NA","196183","195170","195144","195170","224862","237650","161449","195070","195074","NA","190506","NA","NA","2728","2726","2728","NA","224862","lineup1","no","3","no","1366"
"","white","no","xpyriment","legacy","legacy","0","40","relative","2","2","1","2","9","9","1","1","1","0","9","0","0","0","1","9","1","1","9","1","1","1","9","16","1","1","2","1","1","1","1","0","0","0","0","9","11/04/17 11:46:01","Executes Python code","yes","","lineup_videoFB.osexp","C:/Users/standalone/Desktop/Full Body Video 0411","no","mono","no","24","no","black","no","yes","male","768","Yes","no","no","no","legacy","no","3","0","C:/Users/standalone/Desktop/Full Body Video 0411/subject-7.csv","[member4]","4","5","2","6","1","3","xpyriment","Jazzy James","3.1.6","0","2","legacy","1024","2","48000","-16","experiment","7","odd","legacy","[target1]","present","absent","2798","195074","166315","195074","274173","265215","166315","NA","195007","NA","265216","NA","2726","2792","195070","260632","NA","NA","196183","195170","195144","195170","238690","274174","161449","195070","195074","NA","190506","NA","NA","2728","2726","2728","NA","238690","lineup1","no","4","no","1366"
"","white","no","xpyriment","legacy","legacy","0","no","relative","2","2","1","2","10","10","1","1","1","0","10","0","0","0","1","10","1","1","10","1","1","1","10","17","1","1","2","1","1","1","1","0","0","0","0","10","11/04/17 11:46:01","Executes Python code","yes","","lineup_videoFB.osexp","C:/Users/standalone/Desktop/Full Body Video 0411","no","mono","no","24","no","black","no","yes","male","768","No","no","no","no","legacy","no","4","0","C:/Users/standalone/Desktop/Full Body Video 0411/subject-7.csv","[member5]","4","5","2","6","1","3","xpyriment","Jazzy James","3.1.6","0","2","legacy","1024","2","48000","-16","experiment","7","odd","legacy","[target1]","present","absent","2798","195074","166315","195074","274173","287661","166315","NA","195007","NA","265216","NA","2726","2792","195070","285067","NA","NA","196183","195170","195144","195170","275244","287662","161449","195070","195074","NA","190506","NA","NA","2728","2726","2728","NA","275244","lineup1","no","5","no","1366"
"","white","no","xpyriment","legacy","legacy","0","no","relative","2","2","1","2","11","11","1","1","1","0","11","0","0","0","1","11","1","1","11","1","1","1","11","18","1","1","2","1","1","1","1","0","0","0","0","11","11/04/17 11:46:01","Executes Python code","yes","","lineup_videoFB.osexp","C:/Users/standalone/Desktop/Full Body Video 0411","no","mono","no","24","no","black","no","yes","male","768","No","no","no","no","legacy","no","5","0","C:/Users/standalone/Desktop/Full Body Video 0411/subject-7.csv","[member6]","4","5","2","6","1","3","xpyriment","Jazzy James","3.1.6","0","2","legacy","1024","2","48000","-16","experiment","7","odd","legacy","[target1]","present","absent","2798","195074","166315","195074","274173","297100","166315","NA","195007","NA","265216","NA","2726","2792","195070","295176","NA","NA","196183","195170","195144","195170","288712","297100","161449","195070","195074","NA","190506","NA","NA","2728","2726","2728","NA","288712","lineup1","no","6","no","1366"
"","white","no","xpyriment","legacy","legacy","0","no","relative","2","2","1","2","11","11","1","1","1","0","11","0","0","0","1","11","1","1","11","1","1","1","11","18","1","1","2","1","1","1","1","0","0","0","0","11","11/04/17 11:46:01","Executes Python code","yes","","lineup_videoFB.osexp","C:/Users/standalone/Desktop/Full Body Video 0411","no","mono","no","24","no","black","no","yes","male","768","No","Yes","One","No","legacy","no","5","0","C:/Users/standalone/Desktop/Full Body Video 0411/subject-7.csv","[member6]","4","5","2","6","1","3","xpyriment","Jazzy James","3.1.6","0","2","legacy","1024","2","48000","-16","experiment","7","odd","legacy","[target1]","present","absent","2798","195074","306312","195074","274173","297100","302786","306312","314949","NA","265216","NA","2726","2792","195070","295176","NA","NA","196183","195170","195144","195170","288712","314949","297151","195070","195074","302786","312415","NA","NA","2728","2726","2728","NA","288712","lineup1","no","6","no","1366"
"","white","no","xpyriment","legacy","legacy","0","no","relative","2","2","1","2","11","11","1","1","1","0","11","0","0","0","1","11","1","1","11","1","1","1","11","18","1","1","2","1","1","1","1","0","0","0","0","11","11/04/17 11:46:01","Executes Python code","yes","","lineup_videoFB.osexp","C:/Users/standalone/Desktop/Full Body Video 0411","no","mono","no","24","no","black","no","yes","male","768","No","Yes","One","No","legacy","11am","5","0","C:/Users/standalone/Desktop/Full Body Video 0411/subject-7.csv","[member6]","4","5","2","6","1","3","xpyriment","Jazzy James","3.1.6","0","2","legacy","1024","2","48000","-16","experiment","7","odd","legacy","[target1]","present","absent","2798","195074","306312","195074","274173","297100","302786","306312","314949","319394","265216","319394","2726","2792","195070","295176","NA","NA","196183","195170","195144","195170","288712","320742","297151","195070","195074","302786","312415","NA","NA","2728","2726","2728","315017","288712","lineup1","no","6","no","1366"
