"_prepare","background","bidi","canvas_backend","clock_backend","color_backend","compensation","confidence_immediate","coordinates","count_TA_sequence_setting","count_TP_sequence_setting","count_admin_check","count_check_TA","count_check_TP","count_check_confidence_imm","count_check_identification","count_check_made_identification","count_check_multiple_identification","count_check_proceeding_identification","count_confidence_imm","count_end_of_experiment","count_experiment","count_gender_lineup_loop","count_gender_randomization_sequence","count_identification_task","count_instructions_after_multiple","count_instructions_after_proceed_identification","count_instructions_before_view","count_lineup_loop","count_lineup_procedure_loop","count_lineup_procedure_sequence","count_lineup_sequence","count_logger","count_made_identification","count_member_randomization_loop","count_member_randomization_sequence","count_multiple_identification","count_proceed_identification","count_repeat_lineup_sequence_identification","count_repeat_lineup_sequence_multiple","count_target_setting","count_target_setting_loop","count_target_setting_sequence","count_video","datetime","description","disable_garbage_collection","empty_column","experiment_file","experiment_path","font_bold","font_family","font_italic","font_size","font_underline","foreground","form_clicks","fullscreen","gender","height","identification","identification_made","identification_multiple","identification_proceed","keyboard_backend","live_row","live_row_target_setting_loop","logfile","member","member1","member2","member3","member4","member5","member6","mouse_backend","opensesame_codename","opensesame_version","repeat_cycle","round_decimals","sampler_backend","sound_buf_size","sound_channels","sound_freq","sound_sample_size","start","subject_nr","subject_parity","synth_backend","target","target1","target2","time_TA_sequence_setting","time_TP_sequence_setting","time_admin_check","time_check_TA","time_check_TP","time_check_confidence_imm","time_check_identification","time_check_made_identification","time_check_multiple_identification","time_check_proceeding_identification","time_confidence_imm","time_end_of_experiment","time_experiment","time_gender_lineup_loop","time_gender_randomization_sequence","time_identification_task","time_instructions_after_multiple","time_instructions_after_proceed_identification","time_instructions_before_view","time_lineup_loop","time_lineup_procedure_loop","time_lineup_procedure_sequence","time_lineup_sequence","time_logger","time_made_identification","time_member_randomization_loop","time_member_randomization_sequence","time_multiple_identification","time_proceed_identification","time_repeat_lineup_sequence_identification","time_repeat_lineup_sequence_multiple","time_target_setting","time_target_setting_loop","time_target_setting_sequence","time_video","title","transparent_variables","trial","uniform_coordinates","width"
"","white","no","xpyriment","legacy","legacy","0","NA","relative","NA","NA","NA","NA","NA","NA","NA","NA","NA","NA","NA","0","0","0","NA","NA","NA","NA","NA","NA","NA","NA","NA","1","NA","NA","NA","NA","NA","NA","NA","0","0","0","NA","02/07/18 15:32:32","Executes Python code","yes","","lineup_videoFB_W.osexp","C:/Users/standalone/Desktop/Wednesday 0702/FB","no","mono","no","24","no","black","no","yes","NA","768","NA","NA","NA","NA","legacy","0","0","C:/Users/standalone/Desktop/Wednesday 0702/FB/subject-65.csv","NA","NA","NA","NA","NA","NA","NA","xpyriment","Jazzy James","3.1.6","0","2","legacy","1024","2","48000","-16","experiment","65","odd","legacy","NA","absent","present","NA","NA","NA","NA","NA","NA","NA","NA","NA","NA","NA","NA","3172","NA","NA","NA","NA","NA","NA","NA","NA","NA","NA","3174","NA","NA","NA","NA","NA","NA","NA","3173","3172","3173","NA","lineup1","no","NA","no","1366"
"","white","no","xpyriment","legacy","legacy","0","NA","relative","0","0","NA","0","0","NA","NA","NA","NA","NA","NA","0","0","0","0","NA","NA","NA","NA","NA","0","NA","NA","2","NA","0","0","NA","NA","NA","NA","0","0","0","NA","02/07/18 15:32:32","Executes Python code","yes","","lineup_videoFB_W.osexp","C:/Users/standalone/Desktop/Wednesday 0702/FB","no","mono","no","24","no","black","no","yes","male","768","NA","NA","NA","NA","legacy","0","0","C:/Users/standalone/Desktop/Wednesday 0702/FB/subject-65.csv","NA","5","1","7","4","2","3","xpyriment","Jazzy James","3.1.6","0","2","legacy","1024","2","48000","-16","experiment","65","odd","legacy","[target1]","absent","present","3258","NA","NA","3258","NA","NA","NA","NA","NA","NA","NA","NA","3172","3252","3256","NA","NA","NA","NA","NA","NA","NA","NA","3258","NA","3256","3258","NA","NA","NA","NA","3173","3172","3173","NA","lineup1","no","NA","no","1366"
"","white","no","xpyriment","legacy","legacy","0","no","relative","0","0","0","0","0","0","0","0","0","0","0","0","0","0","0","0","0","0","0","0","0","0","0","4","0","0","0","0","0","0","0","0","0","0","0","02/07/18 15:32:32","Executes Python code","yes","","lineup_videoFB_W.osexp","C:/Users/standalone/Desktop/Wednesday 0702/FB","no","mono","no","24","no","black","no","yes","male","768","Not sure","no","no","no","legacy","0","0","C:/Users/standalone/Desktop/Wednesday 0702/FB/subject-65.csv","[member1]","5","1","7","4","2","3","xpyriment","Jazzy James","3.1.6","0","2","legacy","1024","2","48000","-16","experiment","65","odd","legacy","[target1]","absent","present","3258","NA","NA","3258","NA","NA","44239","NA","NA","NA","NA","NA","3172","3252","3256","33835","NA","NA","4587","3350","3319","3350","4587","44239","NA","3256","3258","NA","NA","NA","NA","3173","3172","3173","11297","lineup1","no","1","no","1366"
"","white","no","xpyriment","legacy","legacy","0","no","relative","0","0","0","0","0","1","1","0","0","0","1","0","0","0","0","1","0","0","1","0","0","0","1","5","0","0","0","0","0","0","0","0","0","0","1","02/07/18 15:32:32","Executes Python code","yes","","lineup_videoFB_W.osexp","C:/Users/standalone/Desktop/Wednesday 0702/FB","no","mono","no","24","no","black","no","yes","male","768","No","no","no","no","legacy","1","0","C:/Users/standalone/Desktop/Wednesday 0702/FB/subject-65.csv","[member2]","5","1","7","4","2","3","xpyriment","Jazzy James","3.1.6","0","2","legacy","1024","2","48000","-16","experiment","65","odd","legacy","[target1]","absent","present","3258","NA","NA","3258","NA","NA","50512","NA","NA","NA","NA","NA","3172","3252","3256","47897","NA","NA","4587","3350","3319","3350","45373","50512","NA","3256","3258","NA","NA","NA","NA","3173","3172","3173","45373","lineup1","no","2","no","1366"
"","white","no","xpyriment","legacy","legacy","0","no","relative","0","0","0","0","0","2","2","0","0","0","2","0","0","0","0","2","0","0","2","0","0","0","2","6","0","0","0","0","0","0","0","0","0","0","2","02/07/18 15:32:32","Executes Python code","yes","","lineup_videoFB_W.osexp","C:/Users/standalone/Desktop/Wednesday 0702/FB","no","mono","no","24","no","black","no","yes","male","768","No","no","no","no","legacy","2","0","C:/Users/standalone/Desktop/Wednesday 0702/FB/subject-65.csv","[member3]","5","1","7","4","2","3","xpyriment","Jazzy James","3.1.6","0","2","legacy","1024","2","48000","-16","experiment","65","odd","legacy","[target1]","absent","present","3258","NA","NA","3258","NA","NA","67274","NA","NA","NA","NA","NA","3172","3252","3256","64012","NA","NA","4587","3350","3319","3350","51619","67274","NA","3256","3258","NA","NA","NA","NA","3173","3172","3173","51619","lineup1","no","3","no","1366"
"","white","no","xpyriment","legacy","legacy","0","no","relative","0","0","0","0","0","3","3","0","0","0","3","0","0","0","0","3","0","0","3","0","0","0","3","7","0","0","0","0","0","0","0","0","0","0","3","02/07/18 15:32:32","Executes Python code","yes","","lineup_videoFB_W.osexp","C:/Users/standalone/Desktop/Wednesday 0702/FB","no","mono","no","24","no","black","no","yes","male","768","No","no","no","no","legacy","3","0","C:/Users/standalone/Desktop/Wednesday 0702/FB/subject-65.csv","[member4]","5","1","7","4","2","3","xpyriment","Jazzy James","3.1.6","0","2","legacy","1024","2","48000","-16","experiment","65","odd","legacy","[target1]","absent","present","3258","NA","NA","3258","NA","NA","75019","NA","NA","NA","NA","NA","3172","3252","3256","72557","NA","NA","4587","3350","3319","3350","68356","75019","NA","3256","3258","NA","NA","NA","NA","3173","3172","3173","68356","lineup1","no","4","no","1366"
"","white","no","xpyriment","legacy","legacy","0","no","relative","0","0","0","0","0","4","4","0","0","0","4","0","0","0","0","4","0","0","4","0","0","0","4","8","0","0","0","0","0","0","0","0","0","0","4","02/07/18 15:32:32","Executes Python code","yes","","lineup_videoFB_W.osexp","C:/Users/standalone/Desktop/Wednesday 0702/FB","no","mono","no","24","no","black","no","yes","male","768","No","no","no","no","legacy","4","0","C:/Users/standalone/Desktop/Wednesday 0702/FB/subject-65.csv","[member5]","5","1","7","4","2","3","xpyriment","Jazzy James","3.1.6","0","2","legacy","1024","2","48000","-16","experiment","65","odd","legacy","[target1]","absent","present","3258","NA","NA","3258","NA","NA","79729","NA","NA","NA","NA","NA","3172","3252","3256","77521","NA","NA","4587","3350","3319","3350","76081","79729","NA","3256","3258","NA","NA","NA","NA","3173","3172","3173","76081","lineup1","no","5","no","1366"
"","white","no","xpyriment","legacy","legacy","0","no","relative","0","0","0","0","0","5","5","0","0","0","5","0","0","0","0","5","0","0","5","0","0","0","5","9","0","0","0","0","0","0","0","0","0","0","5","02/07/18 15:32:32","Executes Python code","yes","","lineup_videoFB_W.osexp","C:/Users/standalone/Desktop/Wednesday 0702/FB","no","mono","no","24","no","black","no","yes","male","768","No","no","no","no","legacy","5","0","C:/Users/standalone/Desktop/Wednesday 0702/FB/subject-65.csv","[member6]","5","1","7","4","2","3","xpyriment","Jazzy James","3.1.6","0","2","legacy","1024","2","48000","-16","experiment","65","odd","legacy","[target1]","absent","present","3258","NA","NA","3258","NA","NA","87879","NA","NA","NA","NA","NA","3172","3252","3256","85602","NA","NA","4587","3350","3319","3350","80834","87879","NA","3256","3258","NA","NA","NA","NA","3173","3172","3173","80834","lineup1","no","6","no","1366"
"","white","no","xpyriment","legacy","legacy","0","no","relative","0","0","0","0","0","5","5","0","0","0","5","0","0","0","0","5","0","0","5","0","0","0","5","9","0","0","0","0","0","0","0","0","0","0","5","02/07/18 15:32:32","Executes Python code","yes","","lineup_videoFB_W.osexp","C:/Users/standalone/Desktop/Wednesday 0702/FB","no","mono","no","24","no","black","no","yes","male","768","No","Yes","One","No","legacy","5","0","C:/Users/standalone/Desktop/Wednesday 0702/FB/subject-65.csv","[member6]","5","1","7","4","2","3","xpyriment","Jazzy James","3.1.6","0","2","legacy","1024","2","48000","-16","experiment","65","odd","legacy","[target1]","absent","present","3258","NA","106828","3258","NA","NA","87879","101639","106828","121682","NA","NA","3172","3252","3256","85602","NA","NA","4587","3350","3319","3350","80834","121682","87923","3256","3258","101639","113244","NA","NA","3173","3172","3173","80834","lineup1","no","6","no","1366"
"","white","no","xpyriment","legacy","legacy","0","no","relative","2","2","0","2","2","5","5","0","0","0","5","0","0","0","1","5","0","0","5","0","1","0","5","11","0","1","2","0","0","0","0","0","0","0","5","02/07/18 15:32:32","Executes Python code","yes","","lineup_videoFB_W.osexp","C:/Users/standalone/Desktop/Wednesday 0702/FB","no","mono","no","24","no","black","no","yes","female","768","No","Yes","One","No","legacy","0","0","C:/Users/standalone/Desktop/Wednesday 0702/FB/subject-65.csv","[member6]","5","6","2","3","4","1","xpyriment","Jazzy James","3.1.6","0","2","legacy","1024","2","48000","-16","experiment","65","odd","legacy","[target2]","absent","present","3258","121760","106828","3258","121760","NA","87879","101639","106828","121682","NA","NA","3172","3252","121755","85602","NA","NA","4587","3350","3319","3350","80834","121760","87923","121755","121760","101639","113244","NA","NA","3173","3172","3173","80834","lineup1","no","6","no","1366"
"","white","no","xpyriment","legacy","legacy","0","no","relative","2","2","0","2","2","5","5","0","0","0","5","0","0","0","1","5","0","0","5","0","1","0","5","11","0","1","2","0","0","0","0","0","0","0","5","02/07/18 15:32:32","Executes Python code","yes","","lineup_videoFB_W.osexp","C:/Users/standalone/Desktop/Wednesday 0702/FB","no","mono","no","24","no","black","no","yes","female","768","No","Yes","One","No","legacy","0","0","C:/Users/standalone/Desktop/Wednesday 0702/FB/subject-65.csv","[member6]","5","6","2","3","4","1","xpyriment","Jazzy James","3.1.6","0","2","legacy","1024","2","48000","-16","experiment","65","odd","legacy","[target2]","absent","present","3258","121760","106828","3258","121760","NA","87879","101639","106828","121682","NA","NA","3172","3252","121755","85602","NA","NA","4587","3350","3319","3350","80834","121806","87923","121755","121760","101639","113244","NA","NA","3173","3172","3173","80834","lineup1","no","6","no","1366"
"","white","no","xpyriment","legacy","legacy","0","no","relative","2","2","1","2","2","6","6","1","1","1","6","0","0","0","1","6","1","1","6","1","1","1","6","13","1","1","2","1","1","1","1","0","0","0","6","02/07/18 15:32:32","Executes Python code","yes","","lineup_videoFB_W.osexp","C:/Users/standalone/Desktop/Wednesday 0702/FB","no","mono","no","24","no","black","no","yes","female","768","No","no","no","no","legacy","0","0","C:/Users/standalone/Desktop/Wednesday 0702/FB/subject-65.csv","[member1]","5","6","2","3","4","1","xpyriment","Jazzy James","3.1.6","0","2","legacy","1024","2","48000","-16","experiment","65","odd","legacy","[target2]","absent","present","3258","121760","106828","3258","121760","NA","135322","101639","106828","121682","NA","NA","3172","3252","121755","133051","NA","NA","122958","121879","121848","121878","122958","135322","87923","121755","121760","101639","113244","NA","NA","3173","3172","3173","126158","lineup1","no","1","no","1366"
"","white","no","xpyriment","legacy","legacy","0","70","relative","2","2","1","2","2","7","7","1","1","1","7","0","0","0","1","7","1","1","7","1","1","1","7","14","1","1","2","1","1","1","1","0","0","0","7","02/07/18 15:32:32","Executes Python code","yes","","lineup_videoFB_W.osexp","C:/Users/standalone/Desktop/Wednesday 0702/FB","no","mono","no","24","no","black","no","yes","female","768","Yes","no","no","no","legacy","1","0","C:/Users/standalone/Desktop/Wednesday 0702/FB/subject-65.csv","[member2]","5","6","2","3","4","1","xpyriment","Jazzy James","3.1.6","0","2","legacy","1024","2","48000","-16","experiment","65","odd","legacy","[target2]","absent","present","3258","121760","106828","3258","121760","150171","143863","101639","106828","121682","143863","NA","3172","3252","121755","141586","NA","NA","122958","121879","121848","121878","136466","150171","87923","121755","121760","101639","113244","NA","NA","3173","3172","3173","136466","lineup1","no","2","no","1366"
"","white","no","xpyriment","legacy","legacy","0","no","relative","2","2","1","2","2","8","8","1","1","1","8","0","0","0","1","8","1","1","8","1","1","1","8","15","1","1","2","1","1","1","1","0","0","0","8","02/07/18 15:32:32","Executes Python code","yes","","lineup_videoFB_W.osexp","C:/Users/standalone/Desktop/Wednesday 0702/FB","no","mono","no","24","no","black","no","yes","female","768","No","no","no","no","legacy","2","0","C:/Users/standalone/Desktop/Wednesday 0702/FB/subject-65.csv","[member3]","5","6","2","3","4","1","xpyriment","Jazzy James","3.1.6","0","2","legacy","1024","2","48000","-16","experiment","65","odd","legacy","[target2]","absent","present","3258","121760","106828","3258","121760","150171","155548","101639","106828","121682","143863","NA","3172","3252","121755","153338","NA","NA","122958","121879","121848","121878","151327","155548","87923","121755","121760","101639","113244","NA","NA","3173","3172","3173","151328","lineup1","no","3","no","1366"
"","white","no","xpyriment","legacy","legacy","0","no","relative","2","2","1","2","2","9","9","1","1","1","9","0","0","0","1","9","1","1","9","1","1","1","9","16","1","1","2","1","1","1","1","0","0","0","9","02/07/18 15:32:32","Executes Python code","yes","","lineup_videoFB_W.osexp","C:/Users/standalone/Desktop/Wednesday 0702/FB","no","mono","no","24","no","black","no","yes","female","768","No","no","no","no","legacy","3","0","C:/Users/standalone/Desktop/Wednesday 0702/FB/subject-65.csv","[member4]","5","6","2","3","4","1","xpyriment","Jazzy James","3.1.6","0","2","legacy","1024","2","48000","-16","experiment","65","odd","legacy","[target2]","absent","present","3258","121760","106828","3258","121760","150171","160025","101639","106828","121682","143863","NA","3172","3252","121755","157843","NA","NA","122958","121879","121848","121878","156725","160026","87923","121755","121760","101639","113244","NA","NA","3173","3172","3173","156725","lineup1","no","4","no","1366"
"","white","no","xpyriment","legacy","legacy","0","no","relative","2","2","1","2","2","10","10","1","1","1","10","0","0","0","1","10","1","1","10","1","1","1","10","17","1","1","2","1","1","1","1","0","0","0","10","02/07/18 15:32:32","Executes Python code","yes","","lineup_videoFB_W.osexp","C:/Users/standalone/Desktop/Wednesday 0702/FB","no","mono","no","24","no","black","no","yes","female","768","No","no","no","no","legacy","4","0","C:/Users/standalone/Desktop/Wednesday 0702/FB/subject-65.csv","[member5]","5","6","2","3","4","1","xpyriment","Jazzy James","3.1.6","0","2","legacy","1024","2","48000","-16","experiment","65","odd","legacy","[target2]","absent","present","3258","121760","106828","3258","121760","150171","167150","101639","106828","121682","143863","NA","3172","3252","121755","164707","NA","NA","122958","121879","121848","121878","161225","167150","87923","121755","121760","101639","113244","NA","NA","3173","3172","3173","161225","lineup1","no","5","no","1366"
"","white","no","xpyriment","legacy","legacy","0","no","relative","2","2","1","2","2","11","11","1","1","1","11","0","0","0","1","11","1","1","11","1","1","1","11","18","1","1","2","1","1","1","1","0","0","0","11","02/07/18 15:32:32","Executes Python code","yes","","lineup_videoFB_W.osexp","C:/Users/standalone/Desktop/Wednesday 0702/FB","no","mono","no","24","no","black","no","yes","female","768","No","no","no","no","legacy","5","0","C:/Users/standalone/Desktop/Wednesday 0702/FB/subject-65.csv","[member6]","5","6","2","3","4","1","xpyriment","Jazzy James","3.1.6","0","2","legacy","1024","2","48000","-16","experiment","65","odd","legacy","[target2]","absent","present","3258","121760","106828","3258","121760","150171","171982","101639","106828","121682","143863","NA","3172","3252","121755","169798","NA","NA","122958","121879","121848","121878","168334","171983","87923","121755","121760","101639","113244","NA","NA","3173","3172","3173","168334","lineup1","no","6","no","1366"
"","white","no","xpyriment","legacy","legacy","0","no","relative","2","2","1","2","2","11","11","1","1","1","11","0","0","0","1","11","1","1","11","1","1","1","11","18","1","1","2","1","1","1","1","0","0","0","11","02/07/18 15:32:32","Executes Python code","yes","","lineup_videoFB_W.osexp","C:/Users/standalone/Desktop/Wednesday 0702/FB","no","mono","no","24","no","black","no","yes","female","768","No","Yes","One","No","legacy","5","0","C:/Users/standalone/Desktop/Wednesday 0702/FB/subject-65.csv","[member6]","5","6","2","3","4","1","xpyriment","Jazzy James","3.1.6","0","2","legacy","1024","2","48000","-16","experiment","65","odd","legacy","[target2]","absent","present","3258","121760","177749","3258","121760","150171","171982","175025","177749","188681","143863","NA","3172","3252","121755","169798","NA","NA","122958","121879","121848","121878","168334","188681","172036","121755","121760","175025","182938","NA","NA","3173","3172","3173","168334","lineup1","no","6","no","1366"
"","white","no","xpyriment","legacy","legacy","0","no","relative","2","2","1","2","2","11","11","1","1","1","11","0","0","0","1","11","1","1","11","1","1","1","11","18","1","1","2","1","1","1","1","0","0","0","11","02/07/18 15:32:32","Executes Python code","yes","","lineup_videoFB_W.osexp","C:/Users/standalone/Desktop/Wednesday 0702/FB","no","mono","no","24","no","black","no","yes","female","768","No","Yes","One","No","legacy","5","0","C:/Users/standalone/Desktop/Wednesday 0702/FB/subject-65.csv","[member6]","5","6","2","3","4","1","xpyriment","Jazzy James","3.1.6","0","2","legacy","1024","2","48000","-16","experiment","65","odd","legacy","[target2]","absent","present","3258","121760","177749","3258","121760","150171","171982","175025","177749","188681","143863","188745","3172","3252","121755","169798","NA","NA","122958","121879","121848","121878","168334","190472","172036","121755","121760","175025","182938","NA","NA","3173","3172","3173","168334","lineup1","no","6","no","1366"
