"_prepare","background","bidi","canvas_backend","clock_backend","color_backend","compensation","confidence_immediate","coordinates","count_TA_sequence_setting","count_TP_sequence_setting","count_admin_check","count_check_TA","count_check_TP","count_check_confidence_imm","count_check_identification","count_check_made_identification","count_check_multiple_identification","count_check_proceeding_identification","count_check_time_of_exposure","count_confidence_imm","count_end_of_experiment","count_experiment","count_gender_lineup_loop","count_gender_randomization_sequence","count_identification_task","count_instructions_after_multiple","count_instructions_after_proceed_identification","count_instructions_before_view","count_lineup_loop","count_lineup_procedure_loop","count_lineup_procedure_sequence","count_lineup_sequence","count_logger","count_made_identification","count_member_randomization_loop","count_member_randomization_sequence","count_multiple_identification","count_proceed_identification","count_repeat_lineup_sequence_identification","count_repeat_lineup_sequence_multiple","count_target_setting","count_target_setting_loop","count_target_setting_sequence","count_time_of_exposure","count_video","datetime","description","disable_garbage_collection","empty_column","experiment_file","experiment_path","font_bold","font_family","font_italic","font_size","font_underline","foreground","form_clicks","fullscreen","gender","height","identification","identification_made","identification_multiple","identification_proceed","keyboard_backend","lecture_time","live_row","live_row_target_setting_loop","logfile","member","member1","member2","member3","member4","member5","member6","mouse_backend","opensesame_codename","opensesame_version","repeat_cycle","round_decimals","sampler_backend","sound_buf_size","sound_channels","sound_freq","sound_sample_size","start","subject_nr","subject_parity","synth_backend","target","target1","target2","time_TA_sequence_setting","time_TP_sequence_setting","time_admin_check","time_check_TA","time_check_TP","time_check_confidence_imm","time_check_identification","time_check_made_identification","time_check_multiple_identification","time_check_proceeding_identification","time_check_time_of_exposure","time_confidence_imm","time_end_of_experiment","time_experiment","time_gender_lineup_loop","time_gender_randomization_sequence","time_identification_task","time_instructions_after_multiple","time_instructions_after_proceed_identification","time_instructions_before_view","time_lineup_loop","time_lineup_procedure_loop","time_lineup_procedure_sequence","time_lineup_sequence","time_logger","time_made_identification","time_member_randomization_loop","time_member_randomization_sequence","time_multiple_identification","time_proceed_identification","time_repeat_lineup_sequence_identification","time_repeat_lineup_sequence_multiple","time_target_setting","time_target_setting_loop","time_target_setting_sequence","time_time_of_exposure","time_video","title","transparent_variables","trial","uniform_coordinates","width"
"","white","no","xpyriment","legacy","legacy","0","NA","relative","NA","NA","NA","NA","NA","NA","NA","NA","NA","NA","0","NA","0","0","0","NA","NA","NA","NA","NA","NA","NA","NA","NA","1","NA","NA","NA","NA","NA","NA","NA","0","0","0","0","NA","11/10/18 13:57:08","Executes Python code","yes","","lineup_videoFB.osexp","C:/Users/standalone/Desktop/Sat 10 Nov FB 1.27","no","mono","no","24","no","black","no","yes","NA","650","NA","NA","NA","NA","legacy","no","0","0","C:/Users/standalone/Desktop/Sat 10 Nov FB 1.27/subject-117.csv","NA","NA","NA","NA","NA","NA","NA","xpyriment","Jazzy James","3.1.6","0","2","legacy","1024","2","48000","-16","experiment","117","odd","legacy","NA","present","absent","NA","NA","NA","NA","NA","NA","NA","NA","NA","NA","NA","NA","NA","3718","NA","NA","NA","NA","NA","NA","NA","NA","NA","NA","3720","NA","NA","NA","NA","NA","NA","NA","3720","3718","3720","NA","NA","lineup1","no","NA","no","1366"
"","white","no","xpyriment","legacy","legacy","0","NA","relative","1","1","NA","1","1","NA","NA","NA","NA","NA","0","NA","0","0","0","0","NA","NA","NA","NA","NA","0","NA","NA","3","NA","0","1","NA","NA","NA","NA","0","0","0","0","NA","11/10/18 13:57:08","Executes Python code","yes","","lineup_videoFB.osexp","C:/Users/standalone/Desktop/Sat 10 Nov FB 1.27","no","mono","no","24","no","black","no","yes","male","650","NA","NA","NA","NA","legacy","no","0","0","C:/Users/standalone/Desktop/Sat 10 Nov FB 1.27/subject-117.csv","NA","2","1","4","6","3","5","xpyriment","Jazzy James","3.1.6","0","2","legacy","1024","2","48000","-16","experiment","117","odd","legacy","[target1]","present","absent","NA","3800","NA","NA","3800","NA","NA","NA","NA","NA","NA","NA","NA","3718","3792","3795","NA","NA","NA","NA","NA","NA","NA","NA","3800","NA","3795","3800","NA","NA","NA","NA","3720","3718","3720","NA","NA","lineup1","no","NA","no","1366"
"","white","no","xpyriment","legacy","legacy","0","NA","relative","1","1","NA","1","1","NA","NA","NA","NA","NA","0","NA","0","0","0","0","NA","NA","NA","NA","NA","0","NA","NA","3","NA","0","1","NA","NA","NA","NA","0","0","0","0","NA","11/10/18 13:57:08","Executes Python code","yes","","lineup_videoFB.osexp","C:/Users/standalone/Desktop/Sat 10 Nov FB 1.27","no","mono","no","24","no","black","no","yes","male","650","NA","NA","NA","NA","legacy","no","0","0","C:/Users/standalone/Desktop/Sat 10 Nov FB 1.27/subject-117.csv","NA","2","1","4","6","3","5","xpyriment","Jazzy James","3.1.6","0","2","legacy","1024","2","48000","-16","experiment","117","odd","legacy","[target1]","present","absent","NA","3800","NA","NA","3800","NA","NA","NA","NA","NA","NA","NA","NA","3718","3792","3795","NA","NA","NA","NA","NA","NA","NA","NA","3840","NA","3795","3800","NA","NA","NA","NA","3720","3718","3720","NA","NA","lineup1","no","NA","no","1366"
"","white","no","xpyriment","legacy","legacy","0","no","relative","1","1","0","1","1","0","0","0","0","0","0","0","0","0","0","0","0","0","0","0","0","0","0","0","5","0","0","1","0","0","0","0","0","0","0","0","0","11/10/18 13:57:08","Executes Python code","yes","","lineup_videoFB.osexp","C:/Users/standalone/Desktop/Sat 10 Nov FB 1.27","no","mono","no","24","no","black","no","yes","male","650","Not sure","no","no","no","legacy","no","0","0","C:/Users/standalone/Desktop/Sat 10 Nov FB 1.27/subject-117.csv","[member1]","2","1","4","6","3","5","xpyriment","Jazzy James","3.1.6","0","2","legacy","1024","2","48000","-16","experiment","117","odd","legacy","[target1]","present","absent","NA","3800","NA","NA","3800","NA","67567","NA","NA","NA","NA","NA","NA","3718","3792","3795","55939","NA","NA","4607","3910","3881","3910","4607","67567","NA","3795","3800","NA","NA","NA","NA","3720","3718","3720","NA","26670","lineup1","no","1","no","1366"
"","white","no","xpyriment","legacy","legacy","0","no","relative","1","1","0","1","1","1","1","0","0","0","0","1","0","0","0","0","1","0","0","1","0","0","0","1","6","0","0","1","0","0","0","0","0","0","0","0","1","11/10/18 13:57:08","Executes Python code","yes","","lineup_videoFB.osexp","C:/Users/standalone/Desktop/Sat 10 Nov FB 1.27","no","mono","no","24","no","black","no","yes","male","650","No","no","no","no","legacy","no","1","0","C:/Users/standalone/Desktop/Sat 10 Nov FB 1.27/subject-117.csv","[member2]","2","1","4","6","3","5","xpyriment","Jazzy James","3.1.6","0","2","legacy","1024","2","48000","-16","experiment","117","odd","legacy","[target1]","present","absent","NA","3800","NA","NA","3800","NA","88261","NA","NA","NA","NA","NA","NA","3718","3792","3795","85017","NA","NA","4607","3910","3881","3910","68157","88261","NA","3795","3800","NA","NA","NA","NA","3720","3718","3720","NA","68157","lineup1","no","2","no","1366"
"","white","no","xpyriment","legacy","legacy","0","no","relative","1","1","0","1","1","2","2","0","0","0","0","2","0","0","0","0","2","0","0","2","0","0","0","2","7","0","0","1","0","0","0","0","0","0","0","0","2","11/10/18 13:57:08","Executes Python code","yes","","lineup_videoFB.osexp","C:/Users/standalone/Desktop/Sat 10 Nov FB 1.27","no","mono","no","24","no","black","no","yes","male","650","No","no","no","no","legacy","no","2","0","C:/Users/standalone/Desktop/Sat 10 Nov FB 1.27/subject-117.csv","[member3]","2","1","4","6","3","5","xpyriment","Jazzy James","3.1.6","0","2","legacy","1024","2","48000","-16","experiment","117","odd","legacy","[target1]","present","absent","NA","3800","NA","NA","3800","NA","98896","NA","NA","NA","NA","NA","NA","3718","3792","3795","96592","NA","NA","4607","3910","3881","3910","88859","98896","NA","3795","3800","NA","NA","NA","NA","3720","3718","3720","NA","88859","lineup1","no","3","no","1366"
"","white","no","xpyriment","legacy","legacy","0","no","relative","1","1","0","1","1","3","3","0","0","0","0","3","0","0","0","0","3","0","0","3","0","0","0","3","8","0","0","1","0","0","0","0","0","0","0","0","3","11/10/18 13:57:08","Executes Python code","yes","","lineup_videoFB.osexp","C:/Users/standalone/Desktop/Sat 10 Nov FB 1.27","no","mono","no","24","no","black","no","yes","male","650","No","no","no","no","legacy","no","3","0","C:/Users/standalone/Desktop/Sat 10 Nov FB 1.27/subject-117.csv","[member4]","2","1","4","6","3","5","xpyriment","Jazzy James","3.1.6","0","2","legacy","1024","2","48000","-16","experiment","117","odd","legacy","[target1]","present","absent","NA","3800","NA","NA","3800","NA","123796","NA","NA","NA","NA","NA","NA","3718","3792","3795","121109","NA","NA","4607","3910","3881","3910","99483","123797","NA","3795","3800","NA","NA","NA","NA","3720","3718","3720","NA","99483","lineup1","no","4","no","1366"
"","white","no","xpyriment","legacy","legacy","0","no","relative","1","1","0","1","1","4","4","0","0","0","0","4","0","0","0","0","4","0","0","4","0","0","0","4","9","0","0","1","0","0","0","0","0","0","0","0","4","11/10/18 13:57:08","Executes Python code","yes","","lineup_videoFB.osexp","C:/Users/standalone/Desktop/Sat 10 Nov FB 1.27","no","mono","no","24","no","black","no","yes","male","650","No","no","no","no","legacy","no","4","0","C:/Users/standalone/Desktop/Sat 10 Nov FB 1.27/subject-117.csv","[member5]","2","1","4","6","3","5","xpyriment","Jazzy James","3.1.6","0","2","legacy","1024","2","48000","-16","experiment","117","odd","legacy","[target1]","present","absent","NA","3800","NA","NA","3800","NA","133526","NA","NA","NA","NA","NA","NA","3718","3792","3795","131583","NA","NA","4607","3910","3881","3910","124426","133527","NA","3795","3800","NA","NA","NA","NA","3720","3718","3720","NA","124426","lineup1","no","5","no","1366"
"","white","no","xpyriment","legacy","legacy","0","no","relative","1","1","0","1","1","5","5","0","0","0","0","5","0","0","0","0","5","0","0","5","0","0","0","5","10","0","0","1","0","0","0","0","0","0","0","0","5","11/10/18 13:57:08","Executes Python code","yes","","lineup_videoFB.osexp","C:/Users/standalone/Desktop/Sat 10 Nov FB 1.27","no","mono","no","24","no","black","no","yes","male","650","No","no","no","no","legacy","no","5","0","C:/Users/standalone/Desktop/Sat 10 Nov FB 1.27/subject-117.csv","[member6]","2","1","4","6","3","5","xpyriment","Jazzy James","3.1.6","0","2","legacy","1024","2","48000","-16","experiment","117","odd","legacy","[target1]","present","absent","NA","3800","NA","NA","3800","NA","148461","NA","NA","NA","NA","NA","NA","3718","3792","3795","145780","NA","NA","4607","3910","3881","3910","134118","148461","NA","3795","3800","NA","NA","NA","NA","3720","3718","3720","NA","134118","lineup1","no","6","no","1366"
"","white","no","xpyriment","legacy","legacy","0","no","relative","1","1","0","1","1","5","5","0","0","0","0","5","0","0","0","0","5","0","0","5","0","0","0","5","10","0","0","1","0","0","0","0","0","0","0","0","5","11/10/18 13:57:08","Executes Python code","yes","","lineup_videoFB.osexp","C:/Users/standalone/Desktop/Sat 10 Nov FB 1.27","no","mono","no","24","no","black","no","yes","male","650","No","No","no","No","legacy","no","5","0","C:/Users/standalone/Desktop/Sat 10 Nov FB 1.27/subject-117.csv","[member6]","2","1","4","6","3","5","xpyriment","Jazzy James","3.1.6","0","2","legacy","1024","2","48000","-16","experiment","117","odd","legacy","[target1]","present","absent","NA","3800","151553","NA","3800","NA","148461","151553","NA","160708","NA","NA","NA","3718","3792","3795","145780","NA","NA","4607","3910","3881","3910","134118","160709","148507","3795","3800","NA","158434","NA","NA","3720","3718","3720","NA","134118","lineup1","no","6","no","1366"
"","white","no","xpyriment","legacy","legacy","0","no","relative","2","2","0","2","2","5","5","0","0","0","0","5","0","0","0","1","5","0","0","5","0","1","0","5","11","0","1","2","0","0","0","0","0","0","0","0","5","11/10/18 13:57:08","Executes Python code","yes","","lineup_videoFB.osexp","C:/Users/standalone/Desktop/Sat 10 Nov FB 1.27","no","mono","no","24","no","black","no","yes","female","650","No","No","no","No","legacy","no","0","0","C:/Users/standalone/Desktop/Sat 10 Nov FB 1.27/subject-117.csv","[member6]","4","1","7","2","5","3","xpyriment","Jazzy James","3.1.6","0","2","legacy","1024","2","48000","-16","experiment","117","odd","legacy","[target2]","present","absent","160775","3800","151553","160776","3800","NA","148461","151553","NA","160708","NA","NA","NA","3718","3792","160773","145780","NA","NA","4607","3910","3881","3910","134118","160776","148507","160773","160775","NA","158434","NA","NA","3720","3718","3720","NA","134118","lineup1","no","6","no","1366"
"","white","no","xpyriment","legacy","legacy","0","no","relative","2","2","1","2","2","6","6","1","1","1","0","6","0","0","0","1","6","1","1","6","1","1","1","6","13","1","1","2","1","1","1","1","0","0","0","0","6","11/10/18 13:57:08","Executes Python code","yes","","lineup_videoFB.osexp","C:/Users/standalone/Desktop/Sat 10 Nov FB 1.27","no","mono","no","24","no","black","no","yes","female","650","No","no","no","no","legacy","no","0","0","C:/Users/standalone/Desktop/Sat 10 Nov FB 1.27/subject-117.csv","[member1]","4","1","7","2","5","3","xpyriment","Jazzy James","3.1.6","0","2","legacy","1024","2","48000","-16","experiment","117","odd","legacy","[target2]","present","absent","160775","3800","151553","160776","3800","NA","185775","151553","NA","160708","NA","NA","NA","3718","3792","160773","183475","NA","NA","161376","160839","160810","160839","161376","185775","148507","160773","160775","NA","158434","NA","NA","3720","3718","3720","NA","168187","lineup1","no","1","no","1366"
"","white","no","xpyriment","legacy","legacy","0","no","relative","2","2","1","2","2","7","7","1","1","1","0","7","0","0","0","1","7","1","1","7","1","1","1","7","14","1","1","2","1","1","1","1","0","0","0","0","7","11/10/18 13:57:08","Executes Python code","yes","","lineup_videoFB.osexp","C:/Users/standalone/Desktop/Sat 10 Nov FB 1.27","no","mono","no","24","no","black","no","yes","female","650","Not sure","no","no","no","legacy","no","1","0","C:/Users/standalone/Desktop/Sat 10 Nov FB 1.27/subject-117.csv","[member2]","4","1","7","2","5","3","xpyriment","Jazzy James","3.1.6","0","2","legacy","1024","2","48000","-16","experiment","117","odd","legacy","[target2]","present","absent","160775","3800","151553","160776","3800","NA","213712","151553","NA","160708","NA","NA","NA","3718","3792","160773","211417","NA","NA","161376","160839","160810","160839","186350","213712","148507","160773","160775","NA","158434","NA","NA","3720","3718","3720","NA","186350","lineup1","no","2","no","1366"
"","white","no","xpyriment","legacy","legacy","0","60","relative","2","2","1","2","2","8","8","1","1","1","0","8","0","0","0","1","8","1","1","8","1","1","1","8","15","1","1","2","1","1","1","1","0","0","0","0","8","11/10/18 13:57:08","Executes Python code","yes","","lineup_videoFB.osexp","C:/Users/standalone/Desktop/Sat 10 Nov FB 1.27","no","mono","no","24","no","black","no","yes","female","650","Yes","no","no","no","legacy","no","2","0","C:/Users/standalone/Desktop/Sat 10 Nov FB 1.27/subject-117.csv","[member3]","4","1","7","2","5","3","xpyriment","Jazzy James","3.1.6","0","2","legacy","1024","2","48000","-16","experiment","117","odd","legacy","[target2]","present","absent","160775","3800","151553","160776","3800","254394","244835","151553","NA","160708","NA","244835","NA","3718","3792","160773","238122","NA","NA","161376","160839","160810","160839","214306","254395","148507","160773","160775","NA","158434","NA","NA","3720","3718","3720","NA","214306","lineup1","no","3","no","1366"
"","white","no","xpyriment","legacy","legacy","0","no","relative","2","2","1","2","2","9","9","1","1","1","0","9","0","0","0","1","9","1","1","9","1","1","1","9","16","1","1","2","1","1","1","1","0","0","0","0","9","11/10/18 13:57:08","Executes Python code","yes","","lineup_videoFB.osexp","C:/Users/standalone/Desktop/Sat 10 Nov FB 1.27","no","mono","no","24","no","black","no","yes","female","650","No","no","no","no","legacy","no","3","0","C:/Users/standalone/Desktop/Sat 10 Nov FB 1.27/subject-117.csv","[member4]","4","1","7","2","5","3","xpyriment","Jazzy James","3.1.6","0","2","legacy","1024","2","48000","-16","experiment","117","odd","legacy","[target2]","present","absent","160775","3800","151553","160776","3800","254394","269465","151553","NA","160708","NA","244835","NA","3718","3792","160773","267719","NA","NA","161376","160839","160810","160839","255019","269465","148507","160773","160775","NA","158434","NA","NA","3720","3718","3720","NA","255019","lineup1","no","4","no","1366"
"","white","no","xpyriment","legacy","legacy","0","no","relative","2","2","1","2","2","10","10","1","1","1","0","10","0","0","0","1","10","1","1","10","1","1","1","10","17","1","1","2","1","1","1","1","0","0","0","0","10","11/10/18 13:57:08","Executes Python code","yes","","lineup_videoFB.osexp","C:/Users/standalone/Desktop/Sat 10 Nov FB 1.27","no","mono","no","24","no","black","no","yes","female","650","No","no","no","no","legacy","no","4","0","C:/Users/standalone/Desktop/Sat 10 Nov FB 1.27/subject-117.csv","[member5]","4","1","7","2","5","3","xpyriment","Jazzy James","3.1.6","0","2","legacy","1024","2","48000","-16","experiment","117","odd","legacy","[target2]","present","absent","160775","3800","151553","160776","3800","254394","285947","151553","NA","160708","NA","244835","NA","3718","3792","160773","284195","NA","NA","161376","160839","160810","160839","270073","285948","148507","160773","160775","NA","158434","NA","NA","3720","3718","3720","NA","270073","lineup1","no","5","no","1366"
"","white","no","xpyriment","legacy","legacy","0","no","relative","2","2","1","2","2","11","11","1","1","1","0","11","0","0","0","1","11","1","1","11","1","1","1","11","18","1","1","2","1","1","1","1","0","0","0","0","11","11/10/18 13:57:08","Executes Python code","yes","","lineup_videoFB.osexp","C:/Users/standalone/Desktop/Sat 10 Nov FB 1.27","no","mono","no","24","no","black","no","yes","female","650","Not sure","no","no","no","legacy","no","5","0","C:/Users/standalone/Desktop/Sat 10 Nov FB 1.27/subject-117.csv","[member6]","4","1","7","2","5","3","xpyriment","Jazzy James","3.1.6","0","2","legacy","1024","2","48000","-16","experiment","117","odd","legacy","[target2]","present","absent","160775","3800","151553","160776","3800","254394","311506","151553","NA","160708","NA","244835","NA","3718","3792","160773","309377","NA","NA","161376","160839","160810","160839","286526","311506","148507","160773","160775","NA","158434","NA","NA","3720","3718","3720","NA","286527","lineup1","no","6","no","1366"
"","white","no","xpyriment","legacy","legacy","0","no","relative","2","2","1","2","2","11","11","1","1","1","0","11","0","0","0","1","11","1","1","11","1","1","1","11","18","1","1","2","1","1","1","1","0","0","0","0","11","11/10/18 13:57:08","Executes Python code","yes","","lineup_videoFB.osexp","C:/Users/standalone/Desktop/Sat 10 Nov FB 1.27","no","mono","no","24","no","black","no","yes","female","650","Not sure","Yes","One","No","legacy","no","5","0","C:/Users/standalone/Desktop/Sat 10 Nov FB 1.27/subject-117.csv","[member6]","4","1","7","2","5","3","xpyriment","Jazzy James","3.1.6","0","2","legacy","1024","2","48000","-16","experiment","117","odd","legacy","[target2]","present","absent","160775","3800","318213","160776","3800","254394","311506","314317","318213","328880","NA","244835","NA","3718","3792","160773","309377","NA","NA","161376","160839","160810","160839","286526","328880","311556","160773","160775","314317","325317","NA","NA","3720","3718","3720","NA","286527","lineup1","no","6","no","1366"
"","white","no","xpyriment","legacy","legacy","0","no","relative","2","2","1","2","2","11","11","1","1","1","0","11","0","0","0","1","11","1","1","11","1","1","1","11","18","1","1","2","1","1","1","1","0","0","0","0","11","11/10/18 13:57:08","Executes Python code","yes","","lineup_videoFB.osexp","C:/Users/standalone/Desktop/Sat 10 Nov FB 1.27","no","mono","no","24","no","black","no","yes","female","650","Not sure","Yes","One","No","legacy","1pm","5","0","C:/Users/standalone/Desktop/Sat 10 Nov FB 1.27/subject-117.csv","[member6]","4","1","7","2","5","3","xpyriment","Jazzy James","3.1.6","0","2","legacy","1024","2","48000","-16","experiment","117","odd","legacy","[target2]","present","absent","160775","3800","318213","160776","3800","254394","311506","314317","318213","328880","333145","244835","333145","3718","3792","160773","309377","NA","NA","161376","160839","160810","160839","286526","334083","311556","160773","160775","314317","325317","NA","NA","3720","3718","3720","328958","286527","lineup1","no","6","no","1366"
