"_prepare","background","bidi","canvas_backend","clock_backend","color_backend","compensation","confidence_immediate","coordinates","count_TA_sequence_setting","count_TP_sequence_setting","count_admin_check","count_check_TA","count_check_TP","count_check_confidence_imm","count_check_identification","count_check_made_identification","count_check_multiple_identification","count_check_proceeding_identification","count_confidence_imm","count_end_of_experiment","count_experiment","count_gender_lineup_loop","count_gender_randomization_sequence","count_identification_task","count_instructions_after_multiple","count_instructions_after_proceed_identification","count_instructions_before_view","count_lineup_loop","count_lineup_procedure_loop","count_lineup_procedure_sequence","count_lineup_sequence","count_logger","count_made_identification","count_member_randomization_loop","count_member_randomization_sequence","count_multiple_identification","count_proceed_identification","count_repeat_lineup_sequence_identification","count_repeat_lineup_sequence_multiple","count_target_setting","count_target_setting_loop","count_target_setting_sequence","count_video","datetime","description","disable_garbage_collection","empty_column","experiment_file","experiment_path","font_bold","font_family","font_italic","font_size","font_underline","foreground","form_clicks","fullscreen","gender","height","identification","identification_made","identification_multiple","identification_proceed","keyboard_backend","live_row","live_row_target_setting_loop","logfile","member","member1","member2","member3","member4","member5","member6","mouse_backend","opensesame_codename","opensesame_version","repeat_cycle","round_decimals","sampler_backend","sound_buf_size","sound_channels","sound_freq","sound_sample_size","start","subject_nr","subject_parity","synth_backend","target","target1","target2","time_TA_sequence_setting","time_TP_sequence_setting","time_admin_check","time_check_TA","time_check_TP","time_check_confidence_imm","time_check_identification","time_check_made_identification","time_check_multiple_identification","time_check_proceeding_identification","time_confidence_imm","time_end_of_experiment","time_experiment","time_gender_lineup_loop","time_gender_randomization_sequence","time_identification_task","time_instructions_after_multiple","time_instructions_after_proceed_identification","time_instructions_before_view","time_lineup_loop","time_lineup_procedure_loop","time_lineup_procedure_sequence","time_lineup_sequence","time_logger","time_made_identification","time_member_randomization_loop","time_member_randomization_sequence","time_multiple_identification","time_proceed_identification","time_repeat_lineup_sequence_identification","time_repeat_lineup_sequence_multiple","time_target_setting","time_target_setting_loop","time_target_setting_sequence","time_video","title","transparent_variables","trial","uniform_coordinates","width"
"","white","no","xpyriment","legacy","legacy","0","NA","relative","NA","NA","NA","NA","NA","NA","NA","NA","NA","NA","NA","0","0","0","NA","NA","NA","NA","NA","NA","NA","NA","NA","1","NA","NA","NA","NA","NA","NA","NA","0","0","0","NA","03/21/18 14:53:59","Executes Python code","yes","","lineup_videoVIPER_W.osexp","C:/Users/standalone/Desktop/H&S 21 Mar 1.27","no","mono","no","24","no","black","no","yes","NA","768","NA","NA","NA","NA","legacy","0","0","C:/Users/standalone/Desktop/H&S 21 Mar 1.27/subject-99.csv","NA","NA","NA","NA","NA","NA","NA","xpyriment","Jazzy James","3.1.6","0","2","legacy","1024","2","48000","-16","experiment","99","odd","legacy","NA","absent","present","NA","NA","NA","NA","NA","NA","NA","NA","NA","NA","NA","NA","2452","NA","NA","NA","NA","NA","NA","NA","NA","NA","NA","2454","NA","NA","NA","NA","NA","NA","NA","2454","2453","2454","NA","lineup1","no","NA","no","1366"
"","white","no","xpyriment","legacy","legacy","0","NA","relative","0","0","NA","0","0","NA","NA","NA","NA","NA","NA","0","0","0","0","NA","NA","NA","NA","NA","0","NA","NA","2","NA","0","0","NA","NA","NA","NA","0","0","0","NA","03/21/18 14:53:59","Executes Python code","yes","","lineup_videoVIPER_W.osexp","C:/Users/standalone/Desktop/H&S 21 Mar 1.27","no","mono","no","24","no","black","no","yes","female","768","NA","NA","NA","NA","legacy","0","0","C:/Users/standalone/Desktop/H&S 21 Mar 1.27/subject-99.csv","NA","3","2","4","1","6","5","xpyriment","Jazzy James","3.1.6","0","2","legacy","1024","2","48000","-16","experiment","99","odd","legacy","[target2]","absent","present","NA","2524","NA","NA","2524","NA","NA","NA","NA","NA","NA","NA","2452","2518","2521","NA","NA","NA","NA","NA","NA","NA","NA","2524","NA","2521","2524","NA","NA","NA","NA","2454","2453","2454","NA","lineup1","no","NA","no","1366"
"","white","no","xpyriment","legacy","legacy","0","30","relative","0","0","0","0","0","0","0","0","0","0","0","0","0","0","0","0","0","0","0","0","0","0","0","4","0","0","0","0","0","0","0","0","0","0","0","03/21/18 14:53:59","Executes Python code","yes","","lineup_videoVIPER_W.osexp","C:/Users/standalone/Desktop/H&S 21 Mar 1.27","no","mono","no","24","no","black","no","yes","female","768","Yes","no","no","no","legacy","0","0","C:/Users/standalone/Desktop/H&S 21 Mar 1.27/subject-99.csv","[member1]","3","2","4","1","6","5","xpyriment","Jazzy James","3.1.6","0","2","legacy","1024","2","48000","-16","experiment","99","odd","legacy","[target2]","absent","present","NA","2524","NA","NA","2524","41743","35137","NA","NA","NA","35137","NA","2452","2518","2521","23997","NA","NA","2989","2602","2573","2602","2989","41743","NA","2521","2524","NA","NA","NA","NA","2454","2453","2454","5828","lineup1","no","1","no","1366"
"","white","no","xpyriment","legacy","legacy","0","no","relative","0","0","0","0","0","1","1","0","0","0","1","0","0","0","0","1","0","0","1","0","0","0","1","5","0","0","0","0","0","0","0","0","0","0","1","03/21/18 14:53:59","Executes Python code","yes","","lineup_videoVIPER_W.osexp","C:/Users/standalone/Desktop/H&S 21 Mar 1.27","no","mono","no","24","no","black","no","yes","female","768","No","no","no","no","legacy","1","0","C:/Users/standalone/Desktop/H&S 21 Mar 1.27/subject-99.csv","[member2]","3","2","4","1","6","5","xpyriment","Jazzy James","3.1.6","0","2","legacy","1024","2","48000","-16","experiment","99","odd","legacy","[target2]","absent","present","NA","2524","NA","NA","2524","41743","57664","NA","NA","NA","35137","NA","2452","2518","2521","54320","NA","NA","2989","2602","2573","2602","42027","57664","NA","2521","2524","NA","NA","NA","NA","2454","2453","2454","42027","lineup1","no","2","no","1366"
"","white","no","xpyriment","legacy","legacy","0","no","relative","0","0","0","0","0","2","2","0","0","0","2","0","0","0","0","2","0","0","2","0","0","0","2","6","0","0","0","0","0","0","0","0","0","0","2","03/21/18 14:53:59","Executes Python code","yes","","lineup_videoVIPER_W.osexp","C:/Users/standalone/Desktop/H&S 21 Mar 1.27","no","mono","no","24","no","black","no","yes","female","768","Not sure","no","no","no","legacy","2","0","C:/Users/standalone/Desktop/H&S 21 Mar 1.27/subject-99.csv","[member3]","3","2","4","1","6","5","xpyriment","Jazzy James","3.1.6","0","2","legacy","1024","2","48000","-16","experiment","99","odd","legacy","[target2]","absent","present","NA","2524","NA","NA","2524","41743","87703","NA","NA","NA","35137","NA","2452","2518","2521","75520","NA","NA","2989","2602","2573","2602","57948","87704","NA","2521","2524","NA","NA","NA","NA","2454","2453","2454","57948","lineup1","no","3","no","1366"
"","white","no","xpyriment","legacy","legacy","0","no","relative","0","0","0","0","0","3","3","0","0","0","3","0","0","0","0","3","0","0","3","0","0","0","3","7","0","0","0","0","0","0","0","0","0","0","3","03/21/18 14:53:59","Executes Python code","yes","","lineup_videoVIPER_W.osexp","C:/Users/standalone/Desktop/H&S 21 Mar 1.27","no","mono","no","24","no","black","no","yes","female","768","No","no","no","no","legacy","3","0","C:/Users/standalone/Desktop/H&S 21 Mar 1.27/subject-99.csv","[member4]","3","2","4","1","6","5","xpyriment","Jazzy James","3.1.6","0","2","legacy","1024","2","48000","-16","experiment","99","odd","legacy","[target2]","absent","present","NA","2524","NA","NA","2524","41743","100552","NA","NA","NA","35137","NA","2452","2518","2521","97841","NA","NA","2989","2602","2573","2602","87971","100552","NA","2521","2524","NA","NA","NA","NA","2454","2453","2454","87971","lineup1","no","4","no","1366"
"","white","no","xpyriment","legacy","legacy","0","no","relative","0","0","0","0","0","4","4","0","0","0","4","0","0","0","0","4","0","0","4","0","0","0","4","8","0","0","0","0","0","0","0","0","0","0","4","03/21/18 14:53:59","Executes Python code","yes","","lineup_videoVIPER_W.osexp","C:/Users/standalone/Desktop/H&S 21 Mar 1.27","no","mono","no","24","no","black","no","yes","female","768","No","no","no","no","legacy","4","0","C:/Users/standalone/Desktop/H&S 21 Mar 1.27/subject-99.csv","[member5]","3","2","4","1","6","5","xpyriment","Jazzy James","3.1.6","0","2","legacy","1024","2","48000","-16","experiment","99","odd","legacy","[target2]","absent","present","NA","2524","NA","NA","2524","41743","117243","NA","NA","NA","35137","NA","2452","2518","2521","114306","NA","NA","2989","2602","2573","2602","100825","117243","NA","2521","2524","NA","NA","NA","NA","2454","2453","2454","100825","lineup1","no","5","no","1366"
"","white","no","xpyriment","legacy","legacy","0","no","relative","0","0","0","0","0","5","5","0","0","0","5","0","0","0","0","5","0","0","5","0","0","0","5","9","0","0","0","0","0","0","0","0","0","0","5","03/21/18 14:53:59","Executes Python code","yes","","lineup_videoVIPER_W.osexp","C:/Users/standalone/Desktop/H&S 21 Mar 1.27","no","mono","no","24","no","black","no","yes","female","768","No","no","no","no","legacy","5","0","C:/Users/standalone/Desktop/H&S 21 Mar 1.27/subject-99.csv","[member6]","3","2","4","1","6","5","xpyriment","Jazzy James","3.1.6","0","2","legacy","1024","2","48000","-16","experiment","99","odd","legacy","[target2]","absent","present","NA","2524","NA","NA","2524","41743","130979","NA","NA","NA","35137","NA","2452","2518","2521","128050","NA","NA","2989","2602","2573","2602","117523","130979","NA","2521","2524","NA","NA","NA","NA","2454","2453","2454","117523","lineup1","no","6","no","1366"
"","white","no","xpyriment","legacy","legacy","0","no","relative","0","0","0","0","0","5","5","0","0","0","5","0","0","0","0","5","0","0","5","0","0","0","5","9","0","0","0","0","0","0","0","0","0","0","5","03/21/18 14:53:59","Executes Python code","yes","","lineup_videoVIPER_W.osexp","C:/Users/standalone/Desktop/H&S 21 Mar 1.27","no","mono","no","24","no","black","no","yes","female","768","No","Yes","One","No","legacy","5","0","C:/Users/standalone/Desktop/H&S 21 Mar 1.27/subject-99.csv","[member6]","3","2","4","1","6","5","xpyriment","Jazzy James","3.1.6","0","2","legacy","1024","2","48000","-16","experiment","99","odd","legacy","[target2]","absent","present","NA","2524","139448","NA","2524","41743","130979","134690","139448","148721","35137","NA","2452","2518","2521","128050","NA","NA","2989","2602","2573","2602","117523","148721","131025","2521","2524","134690","146205","NA","NA","2454","2453","2454","117523","lineup1","no","6","no","1366"
"","white","no","xpyriment","legacy","legacy","0","no","relative","3","3","0","3","3","5","5","0","0","0","5","0","0","0","1","5","0","0","5","0","1","0","5","12","0","1","3","0","0","0","0","0","0","0","5","03/21/18 14:53:59","Executes Python code","yes","","lineup_videoVIPER_W.osexp","C:/Users/standalone/Desktop/H&S 21 Mar 1.27","no","mono","no","24","no","black","no","yes","male","768","No","Yes","One","No","legacy","0","0","C:/Users/standalone/Desktop/H&S 21 Mar 1.27/subject-99.csv","[member6]","2","4","5","3","1","7","xpyriment","Jazzy James","3.1.6","0","2","legacy","1024","2","48000","-16","experiment","99","odd","legacy","[target1]","absent","present","148795","2524","139448","148795","2524","41743","130979","134690","139448","148721","35137","NA","2452","2518","148788","128050","NA","NA","2989","2602","2573","2602","117523","148795","131025","148788","148795","134690","146205","NA","NA","2454","2453","2454","117523","lineup1","no","6","no","1366"
"","white","no","xpyriment","legacy","legacy","0","no","relative","3","3","0","3","3","5","5","0","0","0","5","0","0","0","1","5","0","0","5","0","1","0","5","12","0","1","3","0","0","0","0","0","0","0","5","03/21/18 14:53:59","Executes Python code","yes","","lineup_videoVIPER_W.osexp","C:/Users/standalone/Desktop/H&S 21 Mar 1.27","no","mono","no","24","no","black","no","yes","male","768","No","Yes","One","No","legacy","0","0","C:/Users/standalone/Desktop/H&S 21 Mar 1.27/subject-99.csv","[member6]","2","4","5","3","1","7","xpyriment","Jazzy James","3.1.6","0","2","legacy","1024","2","48000","-16","experiment","99","odd","legacy","[target1]","absent","present","148795","2524","139448","148795","2524","41743","130979","134690","139448","148721","35137","NA","2452","2518","148788","128050","NA","NA","2989","2602","2573","2602","117523","148833","131025","148788","148795","134690","146205","NA","NA","2454","2453","2454","117523","lineup1","no","6","no","1366"
"","white","no","xpyriment","legacy","legacy","0","no","relative","3","3","0","3","3","5","5","0","0","0","5","0","0","0","1","5","0","0","5","0","1","0","5","12","0","1","3","0","0","0","0","0","0","0","5","03/21/18 14:53:59","Executes Python code","yes","","lineup_videoVIPER_W.osexp","C:/Users/standalone/Desktop/H&S 21 Mar 1.27","no","mono","no","24","no","black","no","yes","male","768","No","Yes","One","No","legacy","0","0","C:/Users/standalone/Desktop/H&S 21 Mar 1.27/subject-99.csv","[member6]","2","4","5","3","1","7","xpyriment","Jazzy James","3.1.6","0","2","legacy","1024","2","48000","-16","experiment","99","odd","legacy","[target1]","absent","present","148795","2524","139448","148795","2524","41743","130979","134690","139448","148721","35137","NA","2452","2518","148788","128050","NA","NA","2989","2602","2573","2602","117523","148873","131025","148788","148795","134690","146205","NA","NA","2454","2453","2454","117523","lineup1","no","6","no","1366"
"","white","no","xpyriment","legacy","legacy","0","no","relative","3","3","1","3","3","6","6","1","1","1","6","0","0","0","1","6","1","1","6","1","1","1","6","14","1","1","3","1","1","1","1","0","0","0","6","03/21/18 14:53:59","Executes Python code","yes","","lineup_videoVIPER_W.osexp","C:/Users/standalone/Desktop/H&S 21 Mar 1.27","no","mono","no","24","no","black","no","yes","male","768","No","no","no","no","legacy","0","0","C:/Users/standalone/Desktop/H&S 21 Mar 1.27/subject-99.csv","[member1]","2","4","5","3","1","7","xpyriment","Jazzy James","3.1.6","0","2","legacy","1024","2","48000","-16","experiment","99","odd","legacy","[target1]","absent","present","148795","2524","139448","148795","2524","41743","162237","134690","139448","148721","35137","NA","2452","2518","148788","159745","NA","NA","149172","148938","148908","148938","149172","162238","131025","148788","148795","134690","146205","NA","NA","2454","2453","2454","150545","lineup1","no","1","no","1366"
"","white","no","xpyriment","legacy","legacy","0","no","relative","3","3","1","3","3","7","7","1","1","1","7","0","0","0","1","7","1","1","7","1","1","1","7","15","1","1","3","1","1","1","1","0","0","0","7","03/21/18 14:53:59","Executes Python code","yes","","lineup_videoVIPER_W.osexp","C:/Users/standalone/Desktop/H&S 21 Mar 1.27","no","mono","no","24","no","black","no","yes","male","768","Not sure","no","no","no","legacy","1","0","C:/Users/standalone/Desktop/H&S 21 Mar 1.27/subject-99.csv","[member2]","2","4","5","3","1","7","xpyriment","Jazzy James","3.1.6","0","2","legacy","1024","2","48000","-16","experiment","99","odd","legacy","[target1]","absent","present","148795","2524","139448","148795","2524","41743","175532","134690","139448","148721","35137","NA","2452","2518","148788","172391","NA","NA","149172","148938","148908","148938","162521","175532","131025","148788","148795","134690","146205","NA","NA","2454","2453","2454","162522","lineup1","no","2","no","1366"
"","white","no","xpyriment","legacy","legacy","0","no","relative","3","3","1","3","3","8","8","1","1","1","8","0","0","0","1","8","1","1","8","1","1","1","8","16","1","1","3","1","1","1","1","0","0","0","8","03/21/18 14:53:59","Executes Python code","yes","","lineup_videoVIPER_W.osexp","C:/Users/standalone/Desktop/H&S 21 Mar 1.27","no","mono","no","24","no","black","no","yes","male","768","No","no","no","no","legacy","2","0","C:/Users/standalone/Desktop/H&S 21 Mar 1.27/subject-99.csv","[member3]","2","4","5","3","1","7","xpyriment","Jazzy James","3.1.6","0","2","legacy","1024","2","48000","-16","experiment","99","odd","legacy","[target1]","absent","present","148795","2524","139448","148795","2524","41743","188555","134690","139448","148721","35137","NA","2452","2518","148788","185855","NA","NA","149172","148938","148908","148938","175817","188555","131025","148788","148795","134690","146205","NA","NA","2454","2453","2454","175818","lineup1","no","3","no","1366"
"","white","no","xpyriment","legacy","legacy","0","no","relative","3","3","1","3","3","9","9","1","1","1","9","0","0","0","1","9","1","1","9","1","1","1","9","17","1","1","3","1","1","1","1","0","0","0","9","03/21/18 14:53:59","Executes Python code","yes","","lineup_videoVIPER_W.osexp","C:/Users/standalone/Desktop/H&S 21 Mar 1.27","no","mono","no","24","no","black","no","yes","male","768","No","no","no","no","legacy","3","0","C:/Users/standalone/Desktop/H&S 21 Mar 1.27/subject-99.csv","[member4]","2","4","5","3","1","7","xpyriment","Jazzy James","3.1.6","0","2","legacy","1024","2","48000","-16","experiment","99","odd","legacy","[target1]","absent","present","148795","2524","139448","148795","2524","41743","204376","134690","139448","148721","35137","NA","2452","2518","148788","200798","NA","NA","149172","148938","148908","148938","188829","204376","131025","148788","148795","134690","146205","NA","NA","2454","2453","2454","188829","lineup1","no","4","no","1366"
"","white","no","xpyriment","legacy","legacy","0","20","relative","3","3","1","3","3","10","10","1","1","1","10","0","0","0","1","10","1","1","10","1","1","1","10","18","1","1","3","1","1","1","1","0","0","0","10","03/21/18 14:53:59","Executes Python code","yes","","lineup_videoVIPER_W.osexp","C:/Users/standalone/Desktop/H&S 21 Mar 1.27","no","mono","no","24","no","black","no","yes","male","768","Yes","no","no","no","legacy","4","0","C:/Users/standalone/Desktop/H&S 21 Mar 1.27/subject-99.csv","[member5]","2","4","5","3","1","7","xpyriment","Jazzy James","3.1.6","0","2","legacy","1024","2","48000","-16","experiment","99","odd","legacy","[target1]","absent","present","148795","2524","139448","148795","2524","224049","218405","134690","139448","148721","218405","NA","2452","2518","148788","214392","NA","NA","149172","148938","148908","148938","204651","224049","131025","148788","148795","134690","146205","NA","NA","2454","2453","2454","204651","lineup1","no","5","no","1366"
"","white","no","xpyriment","legacy","legacy","0","no","relative","3","3","1","3","3","11","11","1","1","1","11","0","0","0","1","11","1","1","11","1","1","1","11","19","1","1","3","1","1","1","1","0","0","0","11","03/21/18 14:53:59","Executes Python code","yes","","lineup_videoVIPER_W.osexp","C:/Users/standalone/Desktop/H&S 21 Mar 1.27","no","mono","no","24","no","black","no","yes","male","768","No","no","no","no","legacy","5","0","C:/Users/standalone/Desktop/H&S 21 Mar 1.27/subject-99.csv","[member6]","2","4","5","3","1","7","xpyriment","Jazzy James","3.1.6","0","2","legacy","1024","2","48000","-16","experiment","99","odd","legacy","[target1]","absent","present","148795","2524","139448","148795","2524","224049","235207","134690","139448","148721","218405","NA","2452","2518","148788","231211","NA","NA","149172","148938","148908","148938","224321","235207","131025","148788","148795","134690","146205","NA","NA","2454","2453","2454","224321","lineup1","no","6","no","1366"
"","white","no","xpyriment","legacy","legacy","0","no","relative","3","3","1","3","3","11","11","1","1","1","11","0","0","0","1","11","1","1","11","1","1","1","11","19","1","1","3","1","1","1","1","0","0","0","11","03/21/18 14:53:59","Executes Python code","yes","","lineup_videoVIPER_W.osexp","C:/Users/standalone/Desktop/H&S 21 Mar 1.27","no","mono","no","24","no","black","no","yes","male","768","No","Yes","One","No","legacy","5","0","C:/Users/standalone/Desktop/H&S 21 Mar 1.27/subject-99.csv","[member6]","2","4","5","3","1","7","xpyriment","Jazzy James","3.1.6","0","2","legacy","1024","2","48000","-16","experiment","99","odd","legacy","[target1]","absent","present","148795","2524","242457","148795","2524","224049","235207","239083","242456","250616","218405","NA","2452","2518","148788","231211","NA","NA","149172","148938","148908","148938","224321","250616","235258","148788","148795","239084","247391","NA","NA","2454","2453","2454","224321","lineup1","no","6","no","1366"
"","white","no","xpyriment","legacy","legacy","0","no","relative","3","3","1","3","3","11","11","1","1","1","11","0","0","0","1","11","1","1","11","1","1","1","11","19","1","1","3","1","1","1","1","0","0","0","11","03/21/18 14:53:59","Executes Python code","yes","","lineup_videoVIPER_W.osexp","C:/Users/standalone/Desktop/H&S 21 Mar 1.27","no","mono","no","24","no","black","no","yes","male","768","No","Yes","One","No","legacy","5","0","C:/Users/standalone/Desktop/H&S 21 Mar 1.27/subject-99.csv","[member6]","2","4","5","3","1","7","xpyriment","Jazzy James","3.1.6","0","2","legacy","1024","2","48000","-16","experiment","99","odd","legacy","[target1]","absent","present","148795","2524","242457","148795","2524","224049","235207","239083","242456","250616","218405","250684","2452","2518","148788","231211","NA","NA","149172","148938","148908","148938","224321","251821","235258","148788","148795","239084","247391","NA","NA","2454","2453","2454","224321","lineup1","no","6","no","1366"
