"_prepare","background","bidi","canvas_backend","clock_backend","color_backend","compensation","confidence_immediate","coordinates","count_TA_sequence_setting","count_TP_sequence_setting","count_admin_check","count_check_TP","count_check_confidence_imm","count_check_identification","count_check_made_identification","count_check_multiple_identification","count_check_proceeding_identification","count_check_time_of_exposure","count_confidence_imm","count_end_of_experiment","count_experiment","count_gender_lineup_loop","count_gender_randomization_sequence","count_identification_task","count_instructions_after_multiple","count_instructions_after_proceed_identification","count_instructions_before_view","count_lineup_loop","count_lineup_procedure_loop","count_lineup_procedure_sequence","count_lineup_sequence","count_logger","count_made_identification","count_member_randomization_loop","count_member_randomization_sequence","count_multiple_identification","count_proceed_identification","count_repeat_lineup_sequence_identification","count_repeat_lineup_sequence_multiple","count_target_setting","count_target_setting_loop","count_target_setting_sequence","count_time_of_exposure","count_video","datetime","description","disable_garbage_collection","empty_column","experiment_file","experiment_path","font_bold","font_family","font_italic","font_size","font_underline","foreground","form_clicks","fullscreen","gender","height","identification","identification_made","identification_multiple","identification_proceed","keyboard_backend","lecture_time","live_row","live_row_target_setting_loop","logfile","member","member1","member2","member3","member4","member5","member6","mouse_backend","opensesame_codename","opensesame_version","repeat_cycle","round_decimals","sampler_backend","sound_buf_size","sound_channels","sound_freq","sound_sample_size","start","subject_nr","subject_parity","synth_backend","target","target1","target2","time_TA_sequence_setting","time_TP_sequence_setting","time_admin_check","time_check_TP","time_check_confidence_imm","time_check_identification","time_check_made_identification","time_check_multiple_identification","time_check_proceeding_identification","time_check_time_of_exposure","time_confidence_imm","time_end_of_experiment","time_experiment","time_gender_lineup_loop","time_gender_randomization_sequence","time_identification_task","time_instructions_after_multiple","time_instructions_after_proceed_identification","time_instructions_before_view","time_lineup_loop","time_lineup_procedure_loop","time_lineup_procedure_sequence","time_lineup_sequence","time_logger","time_made_identification","time_member_randomization_loop","time_member_randomization_sequence","time_multiple_identification","time_proceed_identification","time_repeat_lineup_sequence_identification","time_repeat_lineup_sequence_multiple","time_target_setting","time_target_setting_loop","time_target_setting_sequence","time_time_of_exposure","time_video","title","transparent_variables","trial","uniform_coordinates","width"
"","white","no","xpyriment","legacy","legacy","0","NA","relative","NA","NA","NA","NA","NA","NA","NA","NA","NA","0","NA","0","0","0","NA","NA","NA","NA","NA","NA","NA","NA","NA","1","NA","NA","NA","NA","NA","NA","NA","0","0","0","0","NA","11/04/17 12:21:14","Executes Python code","yes","","lineup_videoVIPER.osexp","C:/Users/standalone/Desktop/Today Viper","no","mono","no","24","no","black","no","yes","NA","768","NA","NA","NA","NA","legacy","no","0","0","C:/Users/standalone/Desktop/Today Viper/subject-18.csv","NA","NA","NA","NA","NA","NA","NA","xpyriment","Jazzy James","3.1.6","0","2","legacy","1024","2","48000","-16","experiment","18","even","legacy","NA","present","absent","NA","NA","NA","NA","NA","NA","NA","NA","NA","NA","NA","NA","2502","NA","NA","NA","NA","NA","NA","NA","NA","NA","NA","2504","NA","NA","NA","NA","NA","NA","NA","2504","2502","2504","NA","NA","lineup1","no","NA","no","1366"
"","white","no","xpyriment","legacy","legacy","0","NA","relative","0","0","NA","0","NA","NA","NA","NA","NA","0","NA","0","0","0","0","NA","NA","NA","NA","NA","0","NA","NA","2","NA","0","0","NA","NA","NA","NA","0","0","0","0","NA","11/04/17 12:21:14","Executes Python code","yes","","lineup_videoVIPER.osexp","C:/Users/standalone/Desktop/Today Viper","no","mono","no","24","no","black","no","yes","male","768","NA","NA","NA","NA","legacy","no","0","0","C:/Users/standalone/Desktop/Today Viper/subject-18.csv","NA","3","5","4","1","6","2","xpyriment","Jazzy James","3.1.6","0","2","legacy","1024","2","48000","-16","experiment","18","even","legacy","[target1]","present","absent","NA","2564","NA","2564","NA","NA","NA","NA","NA","NA","NA","NA","2502","2559","2562","NA","NA","NA","NA","NA","NA","NA","NA","2564","NA","2562","2564","NA","NA","NA","NA","2504","2502","2504","NA","NA","lineup1","no","NA","no","1366"
"","white","no","xpyriment","legacy","legacy","0","no","relative","0","0","0","0","0","0","0","0","0","0","0","0","0","0","0","0","0","0","0","0","0","0","0","4","0","0","0","0","0","0","0","0","0","0","0","0","11/04/17 12:21:14","Executes Python code","yes","","lineup_videoVIPER.osexp","C:/Users/standalone/Desktop/Today Viper","no","mono","no","24","no","black","no","yes","male","768","Not sure","no","no","no","legacy","no","0","0","C:/Users/standalone/Desktop/Today Viper/subject-18.csv","[member1]","3","5","4","1","6","2","xpyriment","Jazzy James","3.1.6","0","2","legacy","1024","2","48000","-16","experiment","18","even","legacy","[target1]","present","absent","NA","2564","NA","2564","NA","28137","NA","NA","NA","NA","NA","NA","2502","2559","2562","22618","NA","NA","2925","2634","2611","2634","2925","28137","NA","2562","2564","NA","NA","NA","NA","2504","2502","2504","NA","8521","lineup1","no","1","no","1366"
"","white","no","xpyriment","legacy","legacy","0","no","relative","0","0","0","0","1","1","0","0","0","0","1","0","0","0","0","1","0","0","1","0","0","0","1","5","0","0","0","0","0","0","0","0","0","0","0","1","11/04/17 12:21:14","Executes Python code","yes","","lineup_videoVIPER.osexp","C:/Users/standalone/Desktop/Today Viper","no","mono","no","24","no","black","no","yes","male","768","No","no","no","no","legacy","no","1","0","C:/Users/standalone/Desktop/Today Viper/subject-18.csv","[member2]","3","5","4","1","6","2","xpyriment","Jazzy James","3.1.6","0","2","legacy","1024","2","48000","-16","experiment","18","even","legacy","[target1]","present","absent","NA","2564","NA","2564","NA","34315","NA","NA","NA","NA","NA","NA","2502","2559","2562","30247","NA","NA","2925","2634","2611","2634","28348","34315","NA","2562","2564","NA","NA","NA","NA","2504","2502","2504","NA","28348","lineup1","no","2","no","1366"
"","white","no","xpyriment","legacy","legacy","0","no","relative","0","0","0","0","2","2","0","0","0","0","2","0","0","0","0","2","0","0","2","0","0","0","2","6","0","0","0","0","0","0","0","0","0","0","0","2","11/04/17 12:21:14","Executes Python code","yes","","lineup_videoVIPER.osexp","C:/Users/standalone/Desktop/Today Viper","no","mono","no","24","no","black","no","yes","male","768","No","no","no","no","legacy","no","2","0","C:/Users/standalone/Desktop/Today Viper/subject-18.csv","[member3]","3","5","4","1","6","2","xpyriment","Jazzy James","3.1.6","0","2","legacy","1024","2","48000","-16","experiment","18","even","legacy","[target1]","present","absent","NA","2564","NA","2564","NA","41748","NA","NA","NA","NA","NA","NA","2502","2559","2562","37865","NA","NA","2925","2634","2611","2634","34543","41749","NA","2562","2564","NA","NA","NA","NA","2504","2502","2504","NA","34543","lineup1","no","3","no","1366"
"","white","no","xpyriment","legacy","legacy","0","no","relative","0","0","0","0","3","3","0","0","0","0","3","0","0","0","0","3","0","0","3","0","0","0","3","7","0","0","0","0","0","0","0","0","0","0","0","3","11/04/17 12:21:14","Executes Python code","yes","","lineup_videoVIPER.osexp","C:/Users/standalone/Desktop/Today Viper","no","mono","no","24","no","black","no","yes","male","768","No","no","no","no","legacy","no","3","0","C:/Users/standalone/Desktop/Today Viper/subject-18.csv","[member4]","3","5","4","1","6","2","xpyriment","Jazzy James","3.1.6","0","2","legacy","1024","2","48000","-16","experiment","18","even","legacy","[target1]","present","absent","NA","2564","NA","2564","NA","47018","NA","NA","NA","NA","NA","NA","2502","2559","2562","43511","NA","NA","2925","2634","2611","2634","41972","47018","NA","2562","2564","NA","NA","NA","NA","2504","2502","2504","NA","41972","lineup1","no","4","no","1366"
"","white","no","xpyriment","legacy","legacy","0","no","relative","0","0","0","0","4","4","0","0","0","0","4","0","0","0","0","4","0","0","4","0","0","0","4","8","0","0","0","0","0","0","0","0","0","0","0","4","11/04/17 12:21:14","Executes Python code","yes","","lineup_videoVIPER.osexp","C:/Users/standalone/Desktop/Today Viper","no","mono","no","24","no","black","no","yes","male","768","Not sure","no","no","no","legacy","no","4","0","C:/Users/standalone/Desktop/Today Viper/subject-18.csv","[member5]","3","5","4","1","6","2","xpyriment","Jazzy James","3.1.6","0","2","legacy","1024","2","48000","-16","experiment","18","even","legacy","[target1]","present","absent","NA","2564","NA","2564","NA","63197","NA","NA","NA","NA","NA","NA","2502","2559","2562","59595","NA","NA","2925","2634","2611","2634","47236","63197","NA","2562","2564","NA","NA","NA","NA","2504","2502","2504","NA","47236","lineup1","no","5","no","1366"
"","white","no","xpyriment","legacy","legacy","0","no","relative","0","0","0","0","5","5","0","0","0","0","5","0","0","0","0","5","0","0","5","0","0","0","5","9","0","0","0","0","0","0","0","0","0","0","0","5","11/04/17 12:21:14","Executes Python code","yes","","lineup_videoVIPER.osexp","C:/Users/standalone/Desktop/Today Viper","no","mono","no","24","no","black","no","yes","male","768","No","no","no","no","legacy","no","5","0","C:/Users/standalone/Desktop/Today Viper/subject-18.csv","[member6]","3","5","4","1","6","2","xpyriment","Jazzy James","3.1.6","0","2","legacy","1024","2","48000","-16","experiment","18","even","legacy","[target1]","present","absent","NA","2564","NA","2564","NA","67781","NA","NA","NA","NA","NA","NA","2502","2559","2562","64813","NA","NA","2925","2634","2611","2634","63426","67781","NA","2562","2564","NA","NA","NA","NA","2504","2502","2504","NA","63426","lineup1","no","6","no","1366"
"","white","no","xpyriment","legacy","legacy","0","no","relative","0","0","1","0","6","6","1","1","1","0","6","0","0","0","0","6","1","1","6","1","0","1","6","11","1","0","0","1","1","1","1","0","0","0","0","6","11/04/17 12:21:14","Executes Python code","yes","","lineup_videoVIPER.osexp","C:/Users/standalone/Desktop/Today Viper","no","mono","no","24","no","black","no","yes","male","768","No","no","no","no","legacy","no","0","0","C:/Users/standalone/Desktop/Today Viper/subject-18.csv","[member1]","3","5","4","1","6","2","xpyriment","Jazzy James","3.1.6","0","2","legacy","1024","2","48000","-16","experiment","18","even","legacy","[target1]","present","absent","NA","2564","74054","2564","NA","115901","74054","NA","103297","NA","NA","NA","2502","2559","2562","112179","NA","103297","107227","107043","2611","107043","107227","115901","67837","2562","2564","NA","79884","107018","NA","2504","2502","2504","NA","109880","lineup1","no","1","no","1366"
"","white","no","xpyriment","legacy","legacy","0","no","relative","0","0","1","0","7","7","1","1","1","0","7","0","0","0","0","7","1","1","7","1","0","1","7","12","1","0","0","1","1","1","1","0","0","0","0","7","11/04/17 12:21:14","Executes Python code","yes","","lineup_videoVIPER.osexp","C:/Users/standalone/Desktop/Today Viper","no","mono","no","24","no","black","no","yes","male","768","No","no","no","no","legacy","no","1","0","C:/Users/standalone/Desktop/Today Viper/subject-18.csv","[member2]","3","5","4","1","6","2","xpyriment","Jazzy James","3.1.6","0","2","legacy","1024","2","48000","-16","experiment","18","even","legacy","[target1]","present","absent","NA","2564","74054","2564","NA","121038","74054","NA","103297","NA","NA","NA","2502","2559","2562","117533","NA","103297","107227","107043","2611","107043","116122","121038","67837","2562","2564","NA","79884","107018","NA","2504","2502","2504","NA","116122","lineup1","no","2","no","1366"
"","white","no","xpyriment","legacy","legacy","0","60","relative","0","0","1","0","8","8","1","1","1","0","8","0","0","0","0","8","1","1","8","1","0","1","8","13","1","0","0","1","1","1","1","0","0","0","0","8","11/04/17 12:21:14","Executes Python code","yes","","lineup_videoVIPER.osexp","C:/Users/standalone/Desktop/Today Viper","no","mono","no","24","no","black","no","yes","male","768","Yes","no","no","no","legacy","no","2","0","C:/Users/standalone/Desktop/Today Viper/subject-18.csv","[member3]","3","5","4","1","6","2","xpyriment","Jazzy James","3.1.6","0","2","legacy","1024","2","48000","-16","experiment","18","even","legacy","[target1]","present","absent","NA","2564","74054","2564","132647","126160","74054","NA","103297","NA","126161","NA","2502","2559","2562","123183","NA","103297","107227","107043","2611","107043","121245","132647","67837","2562","2564","NA","79884","107018","NA","2504","2502","2504","NA","121246","lineup1","no","3","no","1366"
"","white","no","xpyriment","legacy","legacy","0","no","relative","0","0","1","0","9","9","1","1","1","0","9","0","0","0","0","9","1","1","9","1","0","1","9","14","1","0","0","1","1","1","1","0","0","0","0","9","11/04/17 12:21:14","Executes Python code","yes","","lineup_videoVIPER.osexp","C:/Users/standalone/Desktop/Today Viper","no","mono","no","24","no","black","no","yes","male","768","No","no","no","no","legacy","no","3","0","C:/Users/standalone/Desktop/Today Viper/subject-18.csv","[member4]","3","5","4","1","6","2","xpyriment","Jazzy James","3.1.6","0","2","legacy","1024","2","48000","-16","experiment","18","even","legacy","[target1]","present","absent","NA","2564","74054","2564","132647","140268","74054","NA","103297","NA","126161","NA","2502","2559","2562","137557","NA","103297","107227","107043","2611","107043","132879","140268","67837","2562","2564","NA","79884","107018","NA","2504","2502","2504","NA","132879","lineup1","no","4","no","1366"
"","white","no","xpyriment","legacy","legacy","0","80","relative","0","0","1","0","10","10","1","1","1","0","10","0","0","0","0","10","1","1","10","1","0","1","10","15","1","0","0","1","1","1","1","0","0","0","0","10","11/04/17 12:21:14","Executes Python code","yes","","lineup_videoVIPER.osexp","C:/Users/standalone/Desktop/Today Viper","no","mono","no","24","no","black","no","yes","male","768","Yes","no","no","no","legacy","no","4","0","C:/Users/standalone/Desktop/Today Viper/subject-18.csv","[member5]","3","5","4","1","6","2","xpyriment","Jazzy James","3.1.6","0","2","legacy","1024","2","48000","-16","experiment","18","even","legacy","[target1]","present","absent","NA","2564","74054","2564","151380","147961","74054","NA","103297","NA","147961","NA","2502","2559","2562","143557","NA","103297","107227","107043","2611","107043","140500","151380","67837","2562","2564","NA","79884","107018","NA","2504","2502","2504","NA","140500","lineup1","no","5","no","1366"
"","white","no","xpyriment","legacy","legacy","0","no","relative","0","0","1","0","11","11","1","1","1","0","11","0","0","0","0","11","1","1","11","1","0","1","11","16","1","0","0","1","1","1","1","0","0","0","0","11","11/04/17 12:21:14","Executes Python code","yes","","lineup_videoVIPER.osexp","C:/Users/standalone/Desktop/Today Viper","no","mono","no","24","no","black","no","yes","male","768","No","no","no","no","legacy","no","5","0","C:/Users/standalone/Desktop/Today Viper/subject-18.csv","[member6]","3","5","4","1","6","2","xpyriment","Jazzy James","3.1.6","0","2","legacy","1024","2","48000","-16","experiment","18","even","legacy","[target1]","present","absent","NA","2564","74054","2564","151380","155215","74054","NA","103297","NA","147961","NA","2502","2559","2562","152413","NA","103297","107227","107043","2611","107043","151593","155215","67837","2562","2564","NA","79884","107018","NA","2504","2502","2504","NA","151593","lineup1","no","6","no","1366"
"","white","no","xpyriment","legacy","legacy","0","no","relative","0","0","2","0","12","12","2","2","2","0","12","0","0","0","0","12","2","2","12","2","0","2","12","18","2","0","0","2","2","2","2","0","0","0","0","12","11/04/17 12:21:14","Executes Python code","yes","","lineup_videoVIPER.osexp","C:/Users/standalone/Desktop/Today Viper","no","mono","no","24","no","black","no","yes","male","768","No","no","no","no","legacy","no","0","0","C:/Users/standalone/Desktop/Today Viper/subject-18.csv","[member1]","3","5","4","1","6","2","xpyriment","Jazzy James","3.1.6","0","2","legacy","1024","2","48000","-16","experiment","18","even","legacy","[target1]","present","absent","NA","2564","74054","2564","151380","176732","159872","164081","103297","NA","147961","NA","2502","2559","2562","174259","164081","103297","171048","170869","2611","170869","171048","176732","155270","2562","2564","159872","79884","107018","170844","2504","2502","2504","NA","172465","lineup1","no","1","no","1366"
"","white","no","xpyriment","legacy","legacy","0","no","relative","0","0","2","0","13","13","2","2","2","0","13","0","0","0","0","13","2","2","13","2","0","2","13","19","2","0","0","2","2","2","2","0","0","0","0","13","11/04/17 12:21:14","Executes Python code","yes","","lineup_videoVIPER.osexp","C:/Users/standalone/Desktop/Today Viper","no","mono","no","24","no","black","no","yes","male","768","No","no","no","no","legacy","no","1","0","C:/Users/standalone/Desktop/Today Viper/subject-18.csv","[member2]","3","5","4","1","6","2","xpyriment","Jazzy James","3.1.6","0","2","legacy","1024","2","48000","-16","experiment","18","even","legacy","[target1]","present","absent","NA","2564","74054","2564","151380","181578","159872","164081","103297","NA","147961","NA","2502","2559","2562","178422","164081","103297","171048","170869","2611","170869","176966","181578","155270","2562","2564","159872","79884","107018","170844","2504","2502","2504","NA","176966","lineup1","no","2","no","1366"
"","white","no","xpyriment","legacy","legacy","0","no","relative","0","0","2","0","14","14","2","2","2","0","14","0","0","0","0","14","2","2","14","2","0","2","14","20","2","0","0","2","2","2","2","0","0","0","0","14","11/04/17 12:21:14","Executes Python code","yes","","lineup_videoVIPER.osexp","C:/Users/standalone/Desktop/Today Viper","no","mono","no","24","no","black","no","yes","male","768","No","no","no","no","legacy","no","2","0","C:/Users/standalone/Desktop/Today Viper/subject-18.csv","[member3]","3","5","4","1","6","2","xpyriment","Jazzy James","3.1.6","0","2","legacy","1024","2","48000","-16","experiment","18","even","legacy","[target1]","present","absent","NA","2564","74054","2564","151380","187240","159872","164081","103297","NA","147961","NA","2502","2559","2562","184762","164081","103297","171048","170869","2611","170869","181820","187240","155270","2562","2564","159872","79884","107018","170844","2504","2502","2504","NA","181820","lineup1","no","3","no","1366"
"","white","no","xpyriment","legacy","legacy","0","no","relative","0","0","2","0","15","15","2","2","2","0","15","0","0","0","0","15","2","2","15","2","0","2","15","21","2","0","0","2","2","2","2","0","0","0","0","15","11/04/17 12:21:14","Executes Python code","yes","","lineup_videoVIPER.osexp","C:/Users/standalone/Desktop/Today Viper","no","mono","no","24","no","black","no","yes","male","768","No","no","no","no","legacy","no","3","0","C:/Users/standalone/Desktop/Today Viper/subject-18.csv","[member4]","3","5","4","1","6","2","xpyriment","Jazzy James","3.1.6","0","2","legacy","1024","2","48000","-16","experiment","18","even","legacy","[target1]","present","absent","NA","2564","74054","2564","151380","190889","159872","164081","103297","NA","147961","NA","2502","2559","2562","188443","164081","103297","171048","170869","2611","170869","187486","190889","155270","2562","2564","159872","79884","107018","170844","2504","2502","2504","NA","187486","lineup1","no","4","no","1366"
"","white","no","xpyriment","legacy","legacy","0","70","relative","0","0","2","0","16","16","2","2","2","0","16","0","0","0","0","16","2","2","16","2","0","2","16","22","2","0","0","2","2","2","2","0","0","0","0","16","11/04/17 12:21:14","Executes Python code","yes","","lineup_videoVIPER.osexp","C:/Users/standalone/Desktop/Today Viper","no","mono","no","24","no","black","no","yes","male","768","Yes","no","no","no","legacy","no","4","0","C:/Users/standalone/Desktop/Today Viper/subject-18.csv","[member5]","3","5","4","1","6","2","xpyriment","Jazzy James","3.1.6","0","2","legacy","1024","2","48000","-16","experiment","18","even","legacy","[target1]","present","absent","NA","2564","74054","2564","198822","194248","159872","164081","103297","NA","194248","NA","2502","2559","2562","192146","164081","103297","171048","170869","2611","170869","191127","198822","155270","2562","2564","159872","79884","107018","170844","2504","2502","2504","NA","191127","lineup1","no","5","no","1366"
"","white","no","xpyriment","legacy","legacy","0","no","relative","0","0","2","0","17","17","2","2","2","0","17","0","0","0","0","17","2","2","17","2","0","2","17","23","2","0","0","2","2","2","2","0","0","0","0","17","11/04/17 12:21:14","Executes Python code","yes","","lineup_videoVIPER.osexp","C:/Users/standalone/Desktop/Today Viper","no","mono","no","24","no","black","no","yes","male","768","No","no","no","no","legacy","no","5","0","C:/Users/standalone/Desktop/Today Viper/subject-18.csv","[member6]","3","5","4","1","6","2","xpyriment","Jazzy James","3.1.6","0","2","legacy","1024","2","48000","-16","experiment","18","even","legacy","[target1]","present","absent","NA","2564","74054","2564","198822","202055","159872","164081","103297","NA","194248","NA","2502","2559","2562","199778","164081","103297","171048","170869","2611","170869","199029","202055","155270","2562","2564","159872","79884","107018","170844","2504","2502","2504","NA","199029","lineup1","no","6","no","1366"
"","white","no","xpyriment","legacy","legacy","0","no","relative","0","0","2","0","17","17","2","2","2","0","17","0","0","0","0","17","2","2","17","2","0","2","17","23","2","0","0","2","2","2","2","0","0","0","0","17","11/04/17 12:21:14","Executes Python code","yes","","lineup_videoVIPER.osexp","C:/Users/standalone/Desktop/Today Viper","no","mono","no","24","no","black","no","yes","male","768","No","Yes","One","No","legacy","no","5","0","C:/Users/standalone/Desktop/Today Viper/subject-18.csv","[member6]","3","5","4","1","6","2","xpyriment","Jazzy James","3.1.6","0","2","legacy","1024","2","48000","-16","experiment","18","even","legacy","[target1]","present","absent","NA","2564","211121","2564","198822","202055","206729","211121","227641","NA","194248","NA","2502","2559","2562","199778","164081","103297","171048","170869","2611","170869","199029","227641","202126","2562","2564","206729","216021","107018","170844","2504","2502","2504","NA","199029","lineup1","no","6","no","1366"
"","white","no","xpyriment","legacy","legacy","0","no","relative","0","0","2","0","17","17","2","2","2","0","17","0","0","0","0","17","2","2","17","2","0","2","17","23","2","0","0","2","2","2","2","0","0","0","0","17","11/04/17 12:21:14","Executes Python code","yes","","lineup_videoVIPER.osexp","C:/Users/standalone/Desktop/Today Viper","no","mono","no","24","no","black","no","yes","male","768","No","Yes","One","No","legacy","no","5","0","C:/Users/standalone/Desktop/Today Viper/subject-18.csv","[member6]","3","5","4","1","6","2","xpyriment","Jazzy James","3.1.6","0","2","legacy","1024","2","48000","-16","experiment","18","even","legacy","[target1]","present","absent","NA","2564","227684","2564","198822","202055","206729","211121","232941","NA","194248","NA","2502","2559","2562","199778","164081","103297","171048","170869","2611","170869","199029","232941","202126","2562","2564","206729","231500","107018","170844","2504","2502","2504","NA","199029","lineup1","no","6","no","1366"
"","white","no","xpyriment","legacy","legacy","0","no","relative","0","0","2","0","17","17","2","2","2","0","17","0","0","0","0","17","2","2","17","2","0","2","17","23","2","0","0","2","2","2","2","0","0","0","0","17","11/04/17 12:21:14","Executes Python code","yes","","lineup_videoVIPER.osexp","C:/Users/standalone/Desktop/Today Viper","no","mono","no","24","no","black","no","yes","male","768","No","Yes","One","No","legacy","no","5","0","C:/Users/standalone/Desktop/Today Viper/subject-18.csv","[member6]","3","5","4","1","6","2","xpyriment","Jazzy James","3.1.6","0","2","legacy","1024","2","48000","-16","experiment","18","even","legacy","[target1]","present","absent","NA","2564","227684","2564","198822","202055","206729","211121","232941","NA","194248","NA","2502","2559","2562","199778","164081","103297","171048","170869","2611","170869","199029","233001","202126","2562","2564","206729","231500","107018","170844","2504","2502","2504","NA","199029","lineup1","no","6","no","1366"
"","white","no","xpyriment","legacy","legacy","0","no","relative","1","1","2","1","17","17","2","2","2","0","17","0","0","0","1","17","2","2","17","2","1","2","17","24","2","1","1","2","2","2","2","0","0","0","0","17","11/04/17 12:21:14","Executes Python code","yes","","lineup_videoVIPER.osexp","C:/Users/standalone/Desktop/Today Viper","no","mono","no","24","no","black","no","yes","female","768","No","Yes","One","No","legacy","no","0","0","C:/Users/standalone/Desktop/Today Viper/subject-18.csv","[member6]","2","1","7","4","5","3","xpyriment","Jazzy James","3.1.6","0","2","legacy","1024","2","48000","-16","experiment","18","even","legacy","[target2]","present","absent","233111","2564","227684","2564","198822","202055","206729","211121","232941","NA","194248","NA","2502","2559","233109","199778","164081","103297","171048","170869","2611","170869","199029","233111","202126","233109","233111","206729","231500","107018","170844","2504","2502","2504","NA","199029","lineup1","no","6","no","1366"
"","white","no","xpyriment","legacy","legacy","0","no","relative","1","1","3","1","18","18","3","3","3","0","18","0","0","0","1","18","3","3","18","3","1","3","18","26","3","1","1","3","3","3","3","0","0","0","0","18","11/04/17 12:21:14","Executes Python code","yes","","lineup_videoVIPER.osexp","C:/Users/standalone/Desktop/Today Viper","no","mono","no","24","no","black","no","yes","female","768","No","no","no","no","legacy","no","0","0","C:/Users/standalone/Desktop/Today Viper/subject-18.csv","[member1]","2","1","7","4","5","3","xpyriment","Jazzy James","3.1.6","0","2","legacy","1024","2","48000","-16","experiment","18","even","legacy","[target2]","present","absent","233111","2564","227684","2564","198822","246189","206729","211121","232941","NA","194248","NA","2502","2559","233109","243354","164081","103297","233392","233201","233175","233201","233392","246189","202126","233109","233111","206729","231500","107018","170844","2504","2502","2504","NA","240445","lineup1","no","1","no","1366"
"","white","no","xpyriment","legacy","legacy","0","no","relative","1","1","3","1","19","19","3","3","3","0","19","0","0","0","1","19","3","3","19","3","1","3","19","27","3","1","1","3","3","3","3","0","0","0","0","19","11/04/17 12:21:14","Executes Python code","yes","","lineup_videoVIPER.osexp","C:/Users/standalone/Desktop/Today Viper","no","mono","no","24","no","black","no","yes","female","768","Not sure","no","no","no","legacy","no","1","0","C:/Users/standalone/Desktop/Today Viper/subject-18.csv","[member2]","2","1","7","4","5","3","xpyriment","Jazzy James","3.1.6","0","2","legacy","1024","2","48000","-16","experiment","18","even","legacy","[target2]","present","absent","233111","2564","227684","2564","198822","252776","206729","211121","232941","NA","194248","NA","2502","2559","233109","249753","164081","103297","233392","233201","233175","233201","246415","252776","202126","233109","233111","206729","231500","107018","170844","2504","2502","2504","NA","246415","lineup1","no","2","no","1366"
"","white","no","xpyriment","legacy","legacy","0","no","relative","1","1","3","1","20","20","3","3","3","0","20","0","0","0","1","20","3","3","20","3","1","3","20","28","3","1","1","3","3","3","3","0","0","0","0","20","11/04/17 12:21:14","Executes Python code","yes","","lineup_videoVIPER.osexp","C:/Users/standalone/Desktop/Today Viper","no","mono","no","24","no","black","no","yes","female","768","No","no","no","no","legacy","no","2","0","C:/Users/standalone/Desktop/Today Viper/subject-18.csv","[member3]","2","1","7","4","5","3","xpyriment","Jazzy James","3.1.6","0","2","legacy","1024","2","48000","-16","experiment","18","even","legacy","[target2]","present","absent","233111","2564","227684","2564","198822","257758","206729","211121","232941","NA","194248","NA","2502","2559","233109","254434","164081","103297","233392","233201","233175","233201","253015","257759","202126","233109","233111","206729","231500","107018","170844","2504","2502","2504","NA","253015","lineup1","no","3","no","1366"
"","white","no","xpyriment","legacy","legacy","0","no","relative","1","1","3","1","21","21","3","3","3","0","21","0","0","0","1","21","3","3","21","3","1","3","21","29","3","1","1","3","3","3","3","0","0","0","0","21","11/04/17 12:21:14","Executes Python code","yes","","lineup_videoVIPER.osexp","C:/Users/standalone/Desktop/Today Viper","no","mono","no","24","no","black","no","yes","female","768","Not sure","no","no","no","legacy","no","3","0","C:/Users/standalone/Desktop/Today Viper/subject-18.csv","[member4]","2","1","7","4","5","3","xpyriment","Jazzy James","3.1.6","0","2","legacy","1024","2","48000","-16","experiment","18","even","legacy","[target2]","present","absent","233111","2564","227684","2564","198822","263931","206729","211121","232941","NA","194248","NA","2502","2559","233109","260929","164081","103297","233392","233201","233175","233201","258002","263932","202126","233109","233111","206729","231500","107018","170844","2504","2502","2504","NA","258002","lineup1","no","4","no","1366"
"","white","no","xpyriment","legacy","legacy","0","no","relative","1","1","3","1","22","22","3","3","3","0","22","0","0","0","1","22","3","3","22","3","1","3","22","30","3","1","1","3","3","3","3","0","0","0","0","22","11/04/17 12:21:14","Executes Python code","yes","","lineup_videoVIPER.osexp","C:/Users/standalone/Desktop/Today Viper","no","mono","no","24","no","black","no","yes","female","768","No","no","no","no","legacy","no","4","0","C:/Users/standalone/Desktop/Today Viper/subject-18.csv","[member5]","2","1","7","4","5","3","xpyriment","Jazzy James","3.1.6","0","2","legacy","1024","2","48000","-16","experiment","18","even","legacy","[target2]","present","absent","233111","2564","227684","2564","198822","268510","206729","211121","232941","NA","194248","NA","2502","2559","233109","265531","164081","103297","233392","233201","233175","233201","264143","268510","202126","233109","233111","206729","231500","107018","170844","2504","2502","2504","NA","264143","lineup1","no","5","no","1366"
"","white","no","xpyriment","legacy","legacy","0","no","relative","1","1","3","1","23","23","3","3","3","0","23","0","0","0","1","23","3","3","23","3","1","3","23","31","3","1","1","3","3","3","3","0","0","0","0","23","11/04/17 12:21:14","Executes Python code","yes","","lineup_videoVIPER.osexp","C:/Users/standalone/Desktop/Today Viper","no","mono","no","24","no","black","no","yes","female","768","No","no","no","no","legacy","no","5","0","C:/Users/standalone/Desktop/Today Viper/subject-18.csv","[member6]","2","1","7","4","5","3","xpyriment","Jazzy James","3.1.6","0","2","legacy","1024","2","48000","-16","experiment","18","even","legacy","[target2]","present","absent","233111","2564","227684","2564","198822","273879","206729","211121","232941","NA","194248","NA","2502","2559","233109","270372","164081","103297","233392","233201","233175","233201","268743","273879","202126","233109","233111","206729","231500","107018","170844","2504","2502","2504","NA","268743","lineup1","no","6","no","1366"
"","white","no","xpyriment","legacy","legacy","0","no","relative","1","1","4","1","24","24","4","4","4","0","24","0","0","0","1","24","4","4","24","4","1","4","24","33","4","1","1","4","4","4","4","0","0","0","0","24","11/04/17 12:21:14","Executes Python code","yes","","lineup_videoVIPER.osexp","C:/Users/standalone/Desktop/Today Viper","no","mono","no","24","no","black","no","yes","female","768","No","no","no","no","legacy","no","0","0","C:/Users/standalone/Desktop/Today Viper/subject-18.csv","[member1]","2","1","7","4","5","3","xpyriment","Jazzy James","3.1.6","0","2","legacy","1024","2","48000","-16","experiment","18","even","legacy","[target2]","present","absent","233111","2564","279201","2564","198822","308306","279200","211121","299500","NA","194248","NA","2502","2559","233109","305115","164081","299500","301368","301179","233175","301179","301367","308306","273917","233109","233111","206729","288823","301154","170844","2504","2502","2504","NA","302778","lineup1","no","1","no","1366"
"","white","no","xpyriment","legacy","legacy","0","no","relative","1","1","4","1","25","25","4","4","4","0","25","0","0","0","1","25","4","4","25","4","1","4","25","34","4","1","1","4","4","4","4","0","0","0","0","25","11/04/17 12:21:14","Executes Python code","yes","","lineup_videoVIPER.osexp","C:/Users/standalone/Desktop/Today Viper","no","mono","no","24","no","black","no","yes","female","768","No","no","no","no","legacy","no","1","0","C:/Users/standalone/Desktop/Today Viper/subject-18.csv","[member2]","2","1","7","4","5","3","xpyriment","Jazzy James","3.1.6","0","2","legacy","1024","2","48000","-16","experiment","18","even","legacy","[target2]","present","absent","233111","2564","279201","2564","198822","313163","279200","211121","299500","NA","194248","NA","2502","2559","233109","310009","164081","299500","301368","301179","233175","301179","308580","313163","273917","233109","233111","206729","288823","301154","170844","2504","2502","2504","NA","308580","lineup1","no","2","no","1366"
"","white","no","xpyriment","legacy","legacy","0","no","relative","1","1","4","1","26","26","4","4","4","0","26","0","0","0","1","26","4","4","26","4","1","4","26","35","4","1","1","4","4","4","4","0","0","0","0","26","11/04/17 12:21:14","Executes Python code","yes","","lineup_videoVIPER.osexp","C:/Users/standalone/Desktop/Today Viper","no","mono","no","24","no","black","no","yes","female","768","No","no","no","no","legacy","no","2","0","C:/Users/standalone/Desktop/Today Viper/subject-18.csv","[member3]","2","1","7","4","5","3","xpyriment","Jazzy James","3.1.6","0","2","legacy","1024","2","48000","-16","experiment","18","even","legacy","[target2]","present","absent","233111","2564","279201","2564","198822","316946","279200","211121","299500","NA","194248","NA","2502","2559","233109","314494","164081","299500","301368","301179","233175","301179","313401","316946","273917","233109","233111","206729","288823","301154","170844","2504","2502","2504","NA","313401","lineup1","no","3","no","1366"
"","white","no","xpyriment","legacy","legacy","0","no","relative","1","1","4","1","27","27","4","4","4","0","27","0","0","0","1","27","4","4","27","4","1","4","27","36","4","1","1","4","4","4","4","0","0","0","0","27","11/04/17 12:21:14","Executes Python code","yes","","lineup_videoVIPER.osexp","C:/Users/standalone/Desktop/Today Viper","no","mono","no","24","no","black","no","yes","female","768","Not sure","no","no","no","legacy","no","3","0","C:/Users/standalone/Desktop/Today Viper/subject-18.csv","[member4]","2","1","7","4","5","3","xpyriment","Jazzy James","3.1.6","0","2","legacy","1024","2","48000","-16","experiment","18","even","legacy","[target2]","present","absent","233111","2564","279201","2564","198822","321715","279200","211121","299500","NA","194248","NA","2502","2559","233109","318395","164081","299500","301368","301179","233175","301179","317162","321715","273917","233109","233111","206729","288823","301154","170844","2504","2502","2504","NA","317162","lineup1","no","4","no","1366"
"","white","no","xpyriment","legacy","legacy","0","no","relative","1","1","4","1","28","28","4","4","4","0","28","0","0","0","1","28","4","4","28","4","1","4","28","37","4","1","1","4","4","4","4","0","0","0","0","28","11/04/17 12:21:14","Executes Python code","yes","","lineup_videoVIPER.osexp","C:/Users/standalone/Desktop/Today Viper","no","mono","no","24","no","black","no","yes","female","768","No","no","no","no","legacy","no","4","0","C:/Users/standalone/Desktop/Today Viper/subject-18.csv","[member5]","2","1","7","4","5","3","xpyriment","Jazzy James","3.1.6","0","2","legacy","1024","2","48000","-16","experiment","18","even","legacy","[target2]","present","absent","233111","2564","279201","2564","198822","326369","279200","211121","299500","NA","194248","NA","2502","2559","233109","322859","164081","299500","301368","301179","233175","301179","321930","326369","273917","233109","233111","206729","288823","301154","170844","2504","2502","2504","NA","321930","lineup1","no","5","no","1366"
"","white","no","xpyriment","legacy","legacy","0","no","relative","1","1","4","1","29","29","4","4","4","0","29","0","0","0","1","29","4","4","29","4","1","4","29","38","4","1","1","4","4","4","4","0","0","0","0","29","11/04/17 12:21:14","Executes Python code","yes","","lineup_videoVIPER.osexp","C:/Users/standalone/Desktop/Today Viper","no","mono","no","24","no","black","no","yes","female","768","Not sure","no","no","no","legacy","no","5","0","C:/Users/standalone/Desktop/Today Viper/subject-18.csv","[member6]","2","1","7","4","5","3","xpyriment","Jazzy James","3.1.6","0","2","legacy","1024","2","48000","-16","experiment","18","even","legacy","[target2]","present","absent","233111","2564","279201","2564","198822","331815","279200","211121","299500","NA","194248","NA","2502","2559","233109","327956","164081","299500","301368","301179","233175","301179","326589","331815","273917","233109","233111","206729","288823","301154","170844","2504","2502","2504","NA","326589","lineup1","no","6","no","1366"
"","white","no","xpyriment","legacy","legacy","0","no","relative","1","1","4","1","29","29","4","4","4","0","29","0","0","0","1","29","4","4","29","4","1","4","29","38","4","1","1","4","4","4","4","0","0","0","0","29","11/04/17 12:21:14","Executes Python code","yes","","lineup_videoVIPER.osexp","C:/Users/standalone/Desktop/Today Viper","no","mono","no","24","no","black","no","yes","female","768","Not sure","No","no","No","legacy","no","5","0","C:/Users/standalone/Desktop/Today Viper/subject-18.csv","[member6]","2","1","7","4","5","3","xpyriment","Jazzy James","3.1.6","0","2","legacy","1024","2","48000","-16","experiment","18","even","legacy","[target2]","present","absent","233111","2564","335380","2564","198822","331815","335379","211121","348842","NA","194248","NA","2502","2559","233109","327956","164081","299500","301368","301179","233175","301179","326589","348842","331861","233109","233111","206729","340459","301154","170844","2504","2502","2504","NA","326589","lineup1","no","6","no","1366"
"","white","no","xpyriment","legacy","legacy","0","no","relative","1","1","4","1","29","29","4","4","4","0","29","0","0","0","1","29","4","4","29","4","1","4","29","38","4","1","1","4","4","4","4","0","0","0","0","29","11/04/17 12:21:14","Executes Python code","yes","","lineup_videoVIPER.osexp","C:/Users/standalone/Desktop/Today Viper","no","mono","no","24","no","black","no","yes","female","768","Not sure","No","no","No","legacy","no","5","0","C:/Users/standalone/Desktop/Today Viper/subject-18.csv","[member6]","2","1","7","4","5","3","xpyriment","Jazzy James","3.1.6","0","2","legacy","1024","2","48000","-16","experiment","18","even","legacy","[target2]","present","absent","233111","2564","335380","2564","198822","331815","335379","211121","348842","NA","194248","NA","2502","2559","233109","327956","164081","299500","301368","301179","233175","301179","326589","348894","331861","233109","233111","206729","340459","301154","170844","2504","2502","2504","NA","326589","lineup1","no","6","no","1366"
"","white","no","xpyriment","legacy","legacy","0","no","relative","1","1","4","1","29","29","4","4","4","0","29","0","0","0","1","29","4","4","29","4","1","4","29","38","4","1","1","4","4","4","4","0","0","0","0","29","11/04/17 12:21:14","Executes Python code","yes","","lineup_videoVIPER.osexp","C:/Users/standalone/Desktop/Today Viper","no","mono","no","24","no","black","no","yes","female","768","Not sure","No","no","No","legacy","11am","5","0","C:/Users/standalone/Desktop/Today Viper/subject-18.csv","[member6]","2","1","7","4","5","3","xpyriment","Jazzy James","3.1.6","0","2","legacy","1024","2","48000","-16","experiment","18","even","legacy","[target2]","present","absent","233111","2564","335380","2564","198822","331815","335379","211121","348842","357072","194248","357072","2502","2559","233109","327956","164081","299500","301368","301179","233175","301179","326589","359776","331861","233109","233111","206729","340459","301154","170844","2504","2502","2504","348950","326589","lineup1","no","6","no","1366"
