"_prepare"	"acc"	"accuracy"	"average_response_time"	"avg_rt"	"background"	"bidi"	"canvas_backend"	"clock_backend"	"color_backend"	"compensation"	"confidence_immediate"	"coordinates"	"correct"	"correct_live_view"	"count_admin_check"	"count_check_confidence_imm"	"count_check_identification"	"count_check_made_identification"	"count_check_multiple_identification"	"count_check_proceeding_identification"	"count_confidence_imm"	"count_end_of_experiment"	"count_experiment"	"count_identification_task"	"count_instructions"	"count_instructions_after_multiple"	"count_instructions_after_proceed_identification"	"count_instructions_before_view"	"count_instructions_sequence"	"count_lineup_loop"	"count_lineup_sequence"	"count_live_lineup"	"count_live_view"	"count_logger"	"count_made_identification"	"count_multiple_identification"	"count_proceed_identification"	"count_repeat_lineup_sequence_identification"	"count_repeat_lineup_sequence_multiple"	"count_setting_sequence"	"cursor_x"	"cursor_y"	"datetime"	"description"	"disable_garbage_collection"	"empty_column"	"experiment_file"	"experiment_path"	"font_bold"	"font_family"	"font_italic"	"font_size"	"font_underline"	"foreground"	"form_clicks"	"form_response"	"fullscreen"	"height"	"identification"	"identification_made"	"identification_multiple"	"identification_proceed"	"keyboard_backend"	"live_row"	"live_row_instructions"	"live_row_lineup_loop"	"live_row_live_lineup"	"logfile"	"member"	"mouse_backend"	"opensesame_codename"	"opensesame_version"	"repeat_cycle"	"response"	"response_live_view"	"response_time"	"response_time_live_view"	"round_decimals"	"sampler_backend"	"sound_buf_size"	"sound_channels"	"sound_freq"	"sound_sample_size"	"start"	"subject_nr"	"subject_parity"	"synth_backend"	"time_admin_check"	"time_check_confidence_imm"	"time_check_identification"	"time_check_made_identification"	"time_check_multiple_identification"	"time_check_proceeding_identification"	"time_confidence_imm"	"time_end_of_experiment"	"time_experiment"	"time_identification_task"	"time_instructions"	"time_instructions_after_multiple"	"time_instructions_after_proceed_identification"	"time_instructions_before_view"	"time_instructions_sequence"	"time_lineup_loop"	"time_lineup_sequence"	"time_live_lineup"	"time_live_view"	"time_logger"	"time_made_identification"	"time_multiple_identification"	"time_proceed_identification"	"time_repeat_lineup_sequence_identification"	"time_repeat_lineup_sequence_multiple"	"time_setting_sequence"	"title"	"total_correct"	"total_response_time"	"total_responses"	"transparent_variables"	"uniform_coordinates"	"width"
"1"	""	"undefined"	"undefined"	"undefined"	"undefined"	"white"	"no"	"xpyriment"	"legacy"	"legacy"	"0"	"no"	"relative"	"undefined"	"undefined"	"0"	"0"	"0"	"0"	"0"	"0"	"0"	"0"	"0"	"0"	"0"	"0"	"0"	"0"	"0"	"0"	"0"	"0"	"0"	"2"	"0"	"0"	"0"	"0"	"0"	"0"	"816"	"659"	"02/14/18 14:49:42"	"Executes Python code"	"yes"	""	"lineup_liveMEN_W.osexp"	"C:\Users\Laptop10\Desktop\Wednesday 1402"	"no"	"mono"	"no"	"24"	"no"	"black"	"no"	"Continue"	"yes"	"768"	"No"	"no"	"no"	"no"	"legacy"	"0"	"0"	"0"	"0"	"C:/Users/Laptop10/Desktop/Wednesday 1402/subject-53.csv"	"1"	"xpyriment"	"Jazzy James"	"3.1.4"	"0"	"1"	"1"	"19523"	"19523"	"2"	"legacy"	"1024"	"2"	"48000"	"-16"	"experiment"	"53"	"odd"	"legacy"	NA	NA	"61635"	NA	NA	NA	NA	NA	"1538"	"59049"	"1538"	NA	NA	"1543"	"1542"	"39431"	"39431"	"39413"	"39526"	"61636"	NA	NA	NA	NA	NA	"39525"	"lineup1"	"0"	"0"	"0"	"no"	"no"	"1366"
"2"	""	"undefined"	"undefined"	"undefined"	"undefined"	"white"	"no"	"xpyriment"	"legacy"	"legacy"	"0"	"no"	"relative"	"undefined"	"undefined"	"0"	"1"	"1"	"0"	"0"	"0"	"1"	"0"	"0"	"1"	"0"	"0"	"0"	"0"	"0"	"0"	"0"	"0"	"1"	"3"	"0"	"0"	"0"	"0"	"0"	"1"	"336"	"409"	"02/14/18 14:49:42"	"Executes Python code"	"yes"	""	"lineup_liveMEN_W.osexp"	"C:\Users\Laptop10\Desktop\Wednesday 1402"	"no"	"mono"	"no"	"24"	"no"	"black"	"no"	"Continue"	"yes"	"768"	"No"	"no"	"no"	"no"	"legacy"	"1"	"0"	"1"	"0"	"C:/Users/Laptop10/Desktop/Wednesday 1402/subject-53.csv"	"2"	"xpyriment"	"Jazzy James"	"3.1.4"	"0"	"1"	"1"	"12763"	"12763"	"2"	"legacy"	"1024"	"2"	"48000"	"-16"	"experiment"	"53"	"odd"	"legacy"	NA	NA	"78201"	NA	NA	NA	NA	NA	"1538"	"74529"	"1538"	NA	NA	"1543"	"1542"	"39431"	"39431"	"39413"	"61766"	"78202"	NA	NA	NA	NA	NA	"61766"	"lineup1"	"0"	"0"	"0"	"no"	"no"	"1366"
"3"	""	"undefined"	"undefined"	"undefined"	"undefined"	"white"	"no"	"xpyriment"	"legacy"	"legacy"	"0"	"100"	"relative"	"undefined"	"undefined"	"0"	"2"	"2"	"0"	"0"	"0"	"2"	"0"	"0"	"2"	"0"	"0"	"0"	"0"	"0"	"0"	"0"	"0"	"2"	"4"	"0"	"0"	"0"	"0"	"0"	"2"	"224"	"481"	"02/14/18 14:49:42"	"Executes Python code"	"yes"	""	"lineup_liveMEN_W.osexp"	"C:\Users\Laptop10\Desktop\Wednesday 1402"	"no"	"mono"	"no"	"24"	"no"	"black"	"no"	"Continue"	"yes"	"768"	"Yes"	"no"	"no"	"no"	"legacy"	"2"	"0"	"2"	"0"	"C:/Users/Laptop10/Desktop/Wednesday 1402/subject-53.csv"	"3"	"xpyriment"	"Jazzy James"	"3.1.4"	"0"	"1"	"1"	"10852"	"10852"	"2"	"legacy"	"1024"	"2"	"48000"	"-16"	"experiment"	"53"	"odd"	"legacy"	NA	"96126"	"91904"	NA	NA	NA	"91904"	NA	"1538"	"89185"	"1538"	NA	NA	"1543"	"1542"	"39431"	"39431"	"39413"	"78333"	"96127"	NA	NA	NA	NA	NA	"78332"	"lineup1"	"0"	"0"	"0"	"no"	"no"	"1366"
"4"	""	"undefined"	"undefined"	"undefined"	"undefined"	"white"	"no"	"xpyriment"	"legacy"	"legacy"	"0"	"no"	"relative"	"undefined"	"undefined"	"0"	"3"	"3"	"0"	"0"	"0"	"3"	"0"	"0"	"3"	"0"	"0"	"0"	"0"	"0"	"0"	"0"	"0"	"3"	"5"	"0"	"0"	"0"	"0"	"0"	"3"	"436"	"398"	"02/14/18 14:49:42"	"Executes Python code"	"yes"	""	"lineup_liveMEN_W.osexp"	"C:\Users\Laptop10\Desktop\Wednesday 1402"	"no"	"mono"	"no"	"24"	"no"	"black"	"no"	"Continue"	"yes"	"768"	"No"	"no"	"no"	"no"	"legacy"	"3"	"0"	"3"	"0"	"C:/Users/Laptop10/Desktop/Wednesday 1402/subject-53.csv"	"4"	"xpyriment"	"Jazzy James"	"3.1.4"	"0"	"1"	"1"	"2184"	"2184"	"2"	"legacy"	"1024"	"2"	"48000"	"-16"	"experiment"	"53"	"odd"	"legacy"	NA	"96126"	"113694"	NA	NA	NA	"91904"	NA	"1538"	"98442"	"1538"	NA	NA	"1543"	"1542"	"39431"	"39431"	"39413"	"96257"	"113694"	NA	NA	NA	NA	NA	"96256"	"lineup1"	"0"	"0"	"0"	"no"	"no"	"1366"
"5"	""	"undefined"	"undefined"	"undefined"	"undefined"	"white"	"no"	"xpyriment"	"legacy"	"legacy"	"0"	"no"	"relative"	"undefined"	"undefined"	"0"	"4"	"4"	"0"	"0"	"0"	"4"	"0"	"0"	"4"	"0"	"0"	"0"	"0"	"0"	"0"	"0"	"0"	"4"	"6"	"0"	"0"	"0"	"0"	"0"	"4"	"106"	"707"	"02/14/18 14:49:42"	"Executes Python code"	"yes"	""	"lineup_liveMEN_W.osexp"	"C:\Users\Laptop10\Desktop\Wednesday 1402"	"no"	"mono"	"no"	"24"	"no"	"black"	"no"	"Continue"	"yes"	"768"	"No"	"no"	"no"	"no"	"legacy"	"4"	"0"	"4"	"0"	"C:/Users/Laptop10/Desktop/Wednesday 1402/subject-53.csv"	"5"	"xpyriment"	"Jazzy James"	"3.1.4"	"0"	"1"	"1"	"13120"	"13120"	"2"	"legacy"	"1024"	"2"	"48000"	"-16"	"experiment"	"53"	"odd"	"legacy"	NA	"96126"	"129657"	NA	NA	NA	"91904"	NA	"1538"	"126953"	"1538"	NA	NA	"1543"	"1542"	"39431"	"39431"	"39413"	"113832"	"129657"	NA	NA	NA	NA	NA	"113831"	"lineup1"	"0"	"0"	"0"	"no"	"no"	"1366"
"6"	""	"undefined"	"undefined"	"undefined"	"undefined"	"white"	"no"	"xpyriment"	"legacy"	"legacy"	"0"	"no"	"relative"	"undefined"	"undefined"	"0"	"5"	"5"	"0"	"0"	"0"	"5"	"0"	"0"	"5"	"0"	"0"	"0"	"0"	"0"	"0"	"0"	"0"	"5"	"7"	"0"	"0"	"0"	"0"	"0"	"5"	"81"	"562"	"02/14/18 14:49:42"	"Executes Python code"	"yes"	""	"lineup_liveMEN_W.osexp"	"C:\Users\Laptop10\Desktop\Wednesday 1402"	"no"	"mono"	"no"	"24"	"no"	"black"	"no"	"Continue"	"yes"	"768"	"No"	"no"	"no"	"no"	"legacy"	"5"	"0"	"5"	"0"	"C:/Users/Laptop10/Desktop/Wednesday 1402/subject-53.csv"	"6"	"xpyriment"	"Jazzy James"	"3.1.4"	"0"	"1"	"1"	"12629"	"12629"	"2"	"legacy"	"1024"	"2"	"48000"	"-16"	"experiment"	"53"	"odd"	"legacy"	NA	"96126"	"144803"	NA	NA	NA	"91904"	NA	"1538"	"142417"	"1538"	NA	NA	"1543"	"1542"	"39431"	"39431"	"39413"	"129787"	"144803"	NA	NA	NA	NA	NA	"129786"	"lineup1"	"0"	"0"	"0"	"no"	"no"	"1366"
"7"	""	"undefined"	"undefined"	"undefined"	"undefined"	"white"	"no"	"xpyriment"	"legacy"	"legacy"	"0"	"no"	"relative"	"undefined"	"undefined"	"0"	"5"	"5"	"0"	"0"	"0"	"5"	"0"	"0"	"5"	"0"	"0"	"0"	"0"	"0"	"0"	"0"	"0"	"5"	"7"	"0"	"0"	"0"	"0"	"0"	"5"	"81"	"562"	"02/14/18 14:49:42"	"Executes Python code"	"yes"	""	"lineup_liveMEN_W.osexp"	"C:\Users\Laptop10\Desktop\Wednesday 1402"	"no"	"mono"	"no"	"24"	"no"	"black"	"no"	"Continue"	"yes"	"768"	"No"	"Yes"	"One"	"No"	"legacy"	"5"	"0"	"5"	"0"	"C:/Users/Laptop10/Desktop/Wednesday 1402/subject-53.csv"	"6"	"xpyriment"	"Jazzy James"	"3.1.4"	"0"	"1"	"1"	"12629"	"12629"	"2"	"legacy"	"1024"	"2"	"48000"	"-16"	"experiment"	"53"	"odd"	"legacy"	"154457"	"96126"	"144803"	"149203"	"154457"	"188413"	"91904"	NA	"1538"	"142417"	"1538"	NA	NA	"1543"	"1542"	"39431"	"39431"	"39413"	"129787"	"188413"	"144837"	"149204"	"157316"	NA	NA	"129786"	"lineup1"	"0"	"0"	"0"	"no"	"no"	"1366"
"8"	""	"undefined"	"undefined"	"undefined"	"undefined"	"white"	"no"	"xpyriment"	"legacy"	"legacy"	"0"	"no"	"relative"	"undefined"	"undefined"	"0"	"5"	"5"	"0"	"0"	"0"	"5"	"0"	"0"	"5"	"0"	"0"	"0"	"0"	"0"	"0"	"0"	"0"	"5"	"7"	"0"	"0"	"0"	"0"	"0"	"5"	"81"	"562"	"02/14/18 14:49:42"	"Executes Python code"	"yes"	""	"lineup_liveMEN_W.osexp"	"C:\Users\Laptop10\Desktop\Wednesday 1402"	"no"	"mono"	"no"	"24"	"no"	"black"	"no"	"Click to end"	"yes"	"768"	"No"	"Yes"	"One"	"No"	"legacy"	"5"	"0"	"5"	"0"	"C:/Users/Laptop10/Desktop/Wednesday 1402/subject-53.csv"	"6"	"xpyriment"	"Jazzy James"	"3.1.4"	"0"	"1"	"1"	"12629"	"12629"	"2"	"legacy"	"1024"	"2"	"48000"	"-16"	"experiment"	"53"	"odd"	"legacy"	"154457"	"96126"	"144803"	"149203"	"154457"	"188413"	"91904"	"188443"	"1538"	"142417"	"1538"	NA	NA	"1543"	"1542"	"39431"	"39431"	"39413"	"129787"	"191342"	"144837"	"149204"	"157316"	NA	NA	"129786"	"lineup1"	"0"	"0"	"0"	"no"	"no"	"1366"
"9"	""	"undefined"	"undefined"	"undefined"	"undefined"	"white"	"no"	"xpyriment"	"legacy"	"legacy"	"0"	"no"	"relative"	"undefined"	"undefined"	"0"	"0"	"0"	"0"	"0"	"0"	"0"	"0"	"0"	"0"	"0"	"0"	"0"	"0"	"0"	"0"	"0"	"0"	"0"	"2"	"0"	"0"	"0"	"0"	"0"	"0"	"504"	"312"	"02/14/18 15:16:26"	"Executes Python code"	"yes"	""	"lineup_liveMEN_W.osexp"	"C:\Users\Laptop10\Desktop\Wednesday 1402"	"no"	"mono"	"no"	"24"	"no"	"black"	"no"	"Continue"	"yes"	"768"	"No"	"no"	"no"	"no"	"legacy"	"0"	"0"	"0"	"0"	"C:/Users/Laptop10/Desktop/Wednesday 1402/subject-54.csv"	"1"	"xpyriment"	"Jazzy James"	"3.1.4"	"0"	"1"	"1"	"13025"	"13025"	"2"	"legacy"	"1024"	"2"	"48000"	"-16"	"experiment"	"54"	"even"	"legacy"	NA	NA	"57945"	NA	NA	NA	NA	NA	"4559"	"54571"	"4559"	NA	NA	"4563"	"4563"	"41450"	"41450"	"41433"	"41545"	"57945"	NA	NA	NA	NA	NA	"41545"	"lineup1"	"0"	"0"	"0"	"no"	"no"	"1366"
"10"	""	"undefined"	"undefined"	"undefined"	"undefined"	"white"	"no"	"xpyriment"	"legacy"	"legacy"	"0"	"no"	"relative"	"undefined"	"undefined"	"0"	"1"	"1"	"0"	"0"	"0"	"1"	"0"	"0"	"1"	"0"	"0"	"0"	"0"	"0"	"0"	"0"	"0"	"1"	"3"	"0"	"0"	"0"	"0"	"0"	"1"	"899"	"640"	"02/14/18 15:16:26"	"Executes Python code"	"yes"	""	"lineup_liveMEN_W.osexp"	"C:\Users\Laptop10\Desktop\Wednesday 1402"	"no"	"mono"	"no"	"24"	"no"	"black"	"no"	"Continue"	"yes"	"768"	"No"	"no"	"no"	"no"	"legacy"	"1"	"0"	"1"	"0"	"C:/Users/Laptop10/Desktop/Wednesday 1402/subject-54.csv"	"2"	"xpyriment"	"Jazzy James"	"3.1.4"	"0"	"1"	"1"	"11857"	"11857"	"2"	"legacy"	"1024"	"2"	"48000"	"-16"	"experiment"	"54"	"even"	"legacy"	NA	NA	"72171"	NA	NA	NA	NA	NA	"4559"	"69939"	"4559"	NA	NA	"4563"	"4563"	"41450"	"41450"	"41433"	"58081"	"72171"	NA	NA	NA	NA	NA	"58080"	"lineup1"	"0"	"0"	"0"	"no"	"no"	"1366"
"11"	""	"undefined"	"undefined"	"undefined"	"undefined"	"white"	"no"	"xpyriment"	"legacy"	"legacy"	"0"	"no"	"relative"	"undefined"	"undefined"	"0"	"2"	"2"	"0"	"0"	"0"	"2"	"0"	"0"	"2"	"0"	"0"	"0"	"0"	"0"	"0"	"0"	"0"	"2"	"4"	"0"	"0"	"0"	"0"	"0"	"2"	"359"	"636"	"02/14/18 15:16:26"	"Executes Python code"	"yes"	""	"lineup_liveMEN_W.osexp"	"C:\Users\Laptop10\Desktop\Wednesday 1402"	"no"	"mono"	"no"	"24"	"no"	"black"	"no"	"Continue"	"yes"	"768"	"No"	"no"	"no"	"no"	"legacy"	"2"	"0"	"2"	"0"	"C:/Users/Laptop10/Desktop/Wednesday 1402/subject-54.csv"	"3"	"xpyriment"	"Jazzy James"	"3.1.4"	"0"	"1"	"1"	"5947"	"5947"	"2"	"legacy"	"1024"	"2"	"48000"	"-16"	"experiment"	"54"	"even"	"legacy"	NA	NA	"80851"	NA	NA	NA	NA	NA	"4559"	"78282"	"4559"	NA	NA	"4563"	"4563"	"41450"	"41450"	"41433"	"72335"	"80851"	NA	NA	NA	NA	NA	"72334"	"lineup1"	"0"	"0"	"0"	"no"	"no"	"1366"
"12"	""	"undefined"	"undefined"	"undefined"	"undefined"	"white"	"no"	"xpyriment"	"legacy"	"legacy"	"0"	"no"	"relative"	"undefined"	"undefined"	"0"	"3"	"3"	"0"	"0"	"0"	"3"	"0"	"0"	"3"	"0"	"0"	"0"	"0"	"0"	"0"	"0"	"0"	"3"	"5"	"0"	"0"	"0"	"0"	"0"	"3"	"276"	"620"	"02/14/18 15:16:26"	"Executes Python code"	"yes"	""	"lineup_liveMEN_W.osexp"	"C:\Users\Laptop10\Desktop\Wednesday 1402"	"no"	"mono"	"no"	"24"	"no"	"black"	"no"	"Continue"	"yes"	"768"	"No"	"no"	"no"	"no"	"legacy"	"3"	"0"	"3"	"0"	"C:/Users/Laptop10/Desktop/Wednesday 1402/subject-54.csv"	"4"	"xpyriment"	"Jazzy James"	"3.1.4"	"0"	"1"	"1"	"5747"	"5747"	"2"	"legacy"	"1024"	"2"	"48000"	"-16"	"experiment"	"54"	"even"	"legacy"	NA	NA	"88807"	NA	NA	NA	NA	NA	"4559"	"86730"	"4559"	NA	NA	"4563"	"4563"	"41450"	"41450"	"41433"	"80983"	"88807"	NA	NA	NA	NA	NA	"80982"	"lineup1"	"0"	"0"	"0"	"no"	"no"	"1366"
"13"	""	"undefined"	"undefined"	"undefined"	"undefined"	"white"	"no"	"xpyriment"	"legacy"	"legacy"	"0"	"no"	"relative"	"undefined"	"undefined"	"0"	"4"	"4"	"0"	"0"	"0"	"4"	"0"	"0"	"4"	"0"	"0"	"0"	"0"	"0"	"0"	"0"	"0"	"4"	"6"	"0"	"0"	"0"	"0"	"0"	"4"	"434"	"619"	"02/14/18 15:16:26"	"Executes Python code"	"yes"	""	"lineup_liveMEN_W.osexp"	"C:\Users\Laptop10\Desktop\Wednesday 1402"	"no"	"mono"	"no"	"24"	"no"	"black"	"no"	"Continue"	"yes"	"768"	"No"	"no"	"no"	"no"	"legacy"	"4"	"0"	"4"	"0"	"C:/Users/Laptop10/Desktop/Wednesday 1402/subject-54.csv"	"5"	"xpyriment"	"Jazzy James"	"3.1.4"	"0"	"1"	"1"	"5313"	"5313"	"2"	"legacy"	"1024"	"2"	"48000"	"-16"	"experiment"	"54"	"even"	"legacy"	NA	NA	"96809"	NA	NA	NA	NA	NA	"4559"	"94250"	"4559"	NA	NA	"4563"	"4563"	"41450"	"41450"	"41433"	"88937"	"96809"	NA	NA	NA	NA	NA	"88937"	"lineup1"	"0"	"0"	"0"	"no"	"no"	"1366"
"14"	""	"undefined"	"undefined"	"undefined"	"undefined"	"white"	"no"	"xpyriment"	"legacy"	"legacy"	"0"	"no"	"relative"	"undefined"	"undefined"	"0"	"5"	"5"	"0"	"0"	"0"	"5"	"0"	"0"	"5"	"0"	"0"	"0"	"0"	"0"	"0"	"0"	"0"	"5"	"7"	"0"	"0"	"0"	"0"	"0"	"5"	"309"	"691"	"02/14/18 15:16:26"	"Executes Python code"	"yes"	""	"lineup_liveMEN_W.osexp"	"C:\Users\Laptop10\Desktop\Wednesday 1402"	"no"	"mono"	"no"	"24"	"no"	"black"	"no"	"Continue"	"yes"	"768"	"No"	"no"	"no"	"no"	"legacy"	"5"	"0"	"5"	"0"	"C:/Users/Laptop10/Desktop/Wednesday 1402/subject-54.csv"	"6"	"xpyriment"	"Jazzy James"	"3.1.4"	"0"	"1"	"1"	"10157"	"10157"	"2"	"legacy"	"1024"	"2"	"48000"	"-16"	"experiment"	"54"	"even"	"legacy"	NA	NA	"109658"	NA	NA	NA	NA	NA	"4559"	"107098"	"4559"	NA	NA	"4563"	"4563"	"41450"	"41450"	"41433"	"96941"	"109658"	NA	NA	NA	NA	NA	"96940"	"lineup1"	"0"	"0"	"0"	"no"	"no"	"1366"
"15"	""	"undefined"	"undefined"	"undefined"	"undefined"	"white"	"no"	"xpyriment"	"legacy"	"legacy"	"0"	"no"	"relative"	"undefined"	"undefined"	"0"	"5"	"5"	"0"	"0"	"0"	"5"	"0"	"0"	"5"	"0"	"0"	"0"	"0"	"0"	"0"	"0"	"0"	"5"	"7"	"0"	"0"	"0"	"0"	"0"	"5"	"309"	"691"	"02/14/18 15:16:26"	"Executes Python code"	"yes"	""	"lineup_liveMEN_W.osexp"	"C:\Users\Laptop10\Desktop\Wednesday 1402"	"no"	"mono"	"no"	"24"	"no"	"black"	"no"	"Continue"	"yes"	"768"	"No"	"No"	"no"	"No"	"legacy"	"5"	"0"	"5"	"0"	"C:/Users/Laptop10/Desktop/Wednesday 1402/subject-54.csv"	"6"	"xpyriment"	"Jazzy James"	"3.1.4"	"0"	"1"	"1"	"10157"	"10157"	"2"	"legacy"	"1024"	"2"	"48000"	"-16"	"experiment"	"54"	"even"	"legacy"	"113066"	NA	"109658"	"113066"	NA	"134669"	NA	NA	"4559"	"107098"	"4559"	NA	NA	"4563"	"4563"	"41450"	"41450"	"41433"	"96941"	"134669"	"109693"	NA	"116700"	NA	NA	"96940"	"lineup1"	"0"	"0"	"0"	"no"	"no"	"1366"
"16"	""	"undefined"	"undefined"	"undefined"	"undefined"	"white"	"no"	"xpyriment"	"legacy"	"legacy"	"0"	"no"	"relative"	"undefined"	"undefined"	"0"	"5"	"5"	"0"	"0"	"0"	"5"	"0"	"0"	"5"	"0"	"0"	"0"	"0"	"0"	"0"	"0"	"0"	"5"	"7"	"0"	"0"	"0"	"0"	"0"	"5"	"309"	"691"	"02/14/18 15:16:26"	"Executes Python code"	"yes"	""	"lineup_liveMEN_W.osexp"	"C:\Users\Laptop10\Desktop\Wednesday 1402"	"no"	"mono"	"no"	"24"	"no"	"black"	"no"	"Click to end"	"yes"	"768"	"No"	"No"	"no"	"No"	"legacy"	"5"	"0"	"5"	"0"	"C:/Users/Laptop10/Desktop/Wednesday 1402/subject-54.csv"	"6"	"xpyriment"	"Jazzy James"	"3.1.4"	"0"	"1"	"1"	"10157"	"10157"	"2"	"legacy"	"1024"	"2"	"48000"	"-16"	"experiment"	"54"	"even"	"legacy"	"113066"	NA	"109658"	"113066"	NA	"134669"	NA	"134700"	"4559"	"107098"	"4559"	NA	NA	"4563"	"4563"	"41450"	"41450"	"41433"	"96941"	"136673"	"109693"	NA	"116700"	NA	NA	"96940"	"lineup1"	"0"	"0"	"0"	"no"	"no"	"1366"
"17"	""	"undefined"	"undefined"	"undefined"	"undefined"	"white"	"no"	"xpyriment"	"legacy"	"legacy"	"0"	"no"	"relative"	"undefined"	"undefined"	"0"	"0"	"0"	"0"	"0"	"0"	"0"	"0"	"0"	"0"	"0"	"0"	"0"	"0"	"0"	"0"	"0"	"0"	"0"	"2"	"0"	"0"	"0"	"0"	"0"	"0"	"578"	"678"	"02/14/18 14:53:48"	"Executes Python code"	"yes"	""	"lineup_liveMEN_W.osexp"	"C:\Users\Laptop10\Desktop\Wednesday 1402"	"no"	"mono"	"no"	"24"	"no"	"black"	"no"	"Continue"	"yes"	"768"	"No"	"no"	"no"	"no"	"legacy"	"0"	"0"	"0"	"0"	"C:/Users/Laptop10/Desktop/Wednesday 1402/subject-55.csv"	"1"	"xpyriment"	"Jazzy James"	"3.1.4"	"0"	"1"	"1"	"11941"	"11941"	"2"	"legacy"	"1024"	"2"	"48000"	"-16"	"experiment"	"55"	"odd"	"legacy"	NA	NA	"80775"	NA	NA	NA	NA	NA	"1533"	"75570"	"1533"	NA	NA	"1537"	"1537"	"63530"	"63530"	"63512"	"63628"	"80775"	NA	NA	NA	NA	NA	"63627"	"lineup1"	"0"	"0"	"0"	"no"	"no"	"1366"
"18"	""	"undefined"	"undefined"	"undefined"	"undefined"	"white"	"no"	"xpyriment"	"legacy"	"legacy"	"0"	"no"	"relative"	"undefined"	"undefined"	"0"	"1"	"1"	"0"	"0"	"0"	"1"	"0"	"0"	"1"	"0"	"0"	"0"	"0"	"0"	"0"	"0"	"0"	"1"	"3"	"0"	"0"	"0"	"0"	"0"	"1"	"1046"	"575"	"02/14/18 14:53:48"	"Executes Python code"	"yes"	""	"lineup_liveMEN_W.osexp"	"C:\Users\Laptop10\Desktop\Wednesday 1402"	"no"	"mono"	"no"	"24"	"no"	"black"	"no"	"Continue"	"yes"	"768"	"No"	"no"	"no"	"no"	"legacy"	"1"	"0"	"1"	"0"	"C:/Users/Laptop10/Desktop/Wednesday 1402/subject-55.csv"	"2"	"xpyriment"	"Jazzy James"	"3.1.4"	"0"	"1"	"1"	"5589"	"5589"	"2"	"legacy"	"1024"	"2"	"48000"	"-16"	"experiment"	"55"	"odd"	"legacy"	NA	NA	"90174"	NA	NA	NA	NA	NA	"1533"	"86498"	"1533"	NA	NA	"1537"	"1537"	"63530"	"63530"	"63512"	"80909"	"90174"	NA	NA	NA	NA	NA	"80908"	"lineup1"	"0"	"0"	"0"	"no"	"no"	"1366"
"19"	""	"undefined"	"undefined"	"undefined"	"undefined"	"white"	"no"	"xpyriment"	"legacy"	"legacy"	"0"	"no"	"relative"	"undefined"	"undefined"	"0"	"2"	"2"	"0"	"0"	"0"	"2"	"0"	"0"	"2"	"0"	"0"	"0"	"0"	"0"	"0"	"0"	"0"	"2"	"4"	"0"	"0"	"0"	"0"	"0"	"2"	"1273"	"169"	"02/14/18 14:53:48"	"Executes Python code"	"yes"	""	"lineup_liveMEN_W.osexp"	"C:\Users\Laptop10\Desktop\Wednesday 1402"	"no"	"mono"	"no"	"24"	"no"	"black"	"no"	"Continue"	"yes"	"768"	"No"	"no"	"no"	"no"	"legacy"	"2"	"0"	"2"	"0"	"C:/Users/Laptop10/Desktop/Wednesday 1402/subject-55.csv"	"3"	"xpyriment"	"Jazzy James"	"3.1.4"	"0"	"1"	"1"	"5551"	"5551"	"2"	"legacy"	"1024"	"2"	"48000"	"-16"	"experiment"	"55"	"odd"	"legacy"	NA	NA	"98415"	NA	NA	NA	NA	NA	"1533"	"95857"	"1533"	NA	NA	"1537"	"1537"	"63530"	"63530"	"63512"	"90306"	"98415"	NA	NA	NA	NA	NA	"90305"	"lineup1"	"0"	"0"	"0"	"no"	"no"	"1366"
"20"	""	"undefined"	"undefined"	"undefined"	"undefined"	"white"	"no"	"xpyriment"	"legacy"	"legacy"	"0"	"no"	"relative"	"undefined"	"undefined"	"0"	"3"	"3"	"0"	"0"	"0"	"3"	"0"	"0"	"3"	"0"	"0"	"0"	"0"	"0"	"0"	"0"	"0"	"3"	"5"	"0"	"0"	"0"	"0"	"0"	"3"	"724"	"690"	"02/14/18 14:53:48"	"Executes Python code"	"yes"	""	"lineup_liveMEN_W.osexp"	"C:\Users\Laptop10\Desktop\Wednesday 1402"	"no"	"mono"	"no"	"24"	"no"	"black"	"no"	"Continue"	"yes"	"768"	"No"	"no"	"no"	"no"	"legacy"	"3"	"0"	"3"	"0"	"C:/Users/Laptop10/Desktop/Wednesday 1402/subject-55.csv"	"4"	"xpyriment"	"Jazzy James"	"3.1.4"	"0"	"1"	"1"	"5512"	"5512"	"2"	"legacy"	"1024"	"2"	"48000"	"-16"	"experiment"	"55"	"odd"	"legacy"	NA	NA	"106297"	NA	NA	NA	NA	NA	"1533"	"104058"	"1533"	NA	NA	"1537"	"1537"	"63530"	"63530"	"63512"	"98546"	"106298"	NA	NA	NA	NA	NA	"98545"	"lineup1"	"0"	"0"	"0"	"no"	"no"	"1366"
"21"	""	"undefined"	"undefined"	"undefined"	"undefined"	"white"	"no"	"xpyriment"	"legacy"	"legacy"	"0"	"no"	"relative"	"undefined"	"undefined"	"0"	"4"	"4"	"0"	"0"	"0"	"4"	"0"	"0"	"4"	"0"	"0"	"0"	"0"	"0"	"0"	"0"	"0"	"4"	"6"	"0"	"0"	"0"	"0"	"0"	"4"	"303"	"551"	"02/14/18 14:53:48"	"Executes Python code"	"yes"	""	"lineup_liveMEN_W.osexp"	"C:\Users\Laptop10\Desktop\Wednesday 1402"	"no"	"mono"	"no"	"24"	"no"	"black"	"no"	"Continue"	"yes"	"768"	"No"	"no"	"no"	"no"	"legacy"	"4"	"0"	"4"	"0"	"C:/Users/Laptop10/Desktop/Wednesday 1402/subject-55.csv"	"5"	"xpyriment"	"Jazzy James"	"3.1.4"	"0"	"1"	"1"	"4648"	"4648"	"2"	"legacy"	"1024"	"2"	"48000"	"-16"	"experiment"	"55"	"odd"	"legacy"	NA	NA	"113778"	NA	NA	NA	NA	NA	"1533"	"111073"	"1533"	NA	NA	"1537"	"1537"	"63530"	"63530"	"63512"	"106425"	"113778"	NA	NA	NA	NA	NA	"106424"	"lineup1"	"0"	"0"	"0"	"no"	"no"	"1366"
"22"	""	"undefined"	"undefined"	"undefined"	"undefined"	"white"	"no"	"xpyriment"	"legacy"	"legacy"	"0"	"no"	"relative"	"undefined"	"undefined"	"0"	"5"	"5"	"0"	"0"	"0"	"5"	"0"	"0"	"5"	"0"	"0"	"0"	"0"	"0"	"0"	"0"	"0"	"5"	"7"	"0"	"0"	"0"	"0"	"0"	"5"	"816"	"496"	"02/14/18 14:53:48"	"Executes Python code"	"yes"	""	"lineup_liveMEN_W.osexp"	"C:\Users\Laptop10\Desktop\Wednesday 1402"	"no"	"mono"	"no"	"24"	"no"	"black"	"no"	"Continue"	"yes"	"768"	"No"	"no"	"no"	"no"	"legacy"	"5"	"0"	"5"	"0"	"C:/Users/Laptop10/Desktop/Wednesday 1402/subject-55.csv"	"6"	"xpyriment"	"Jazzy James"	"3.1.4"	"0"	"1"	"1"	"5789"	"5789"	"2"	"legacy"	"1024"	"2"	"48000"	"-16"	"experiment"	"55"	"odd"	"legacy"	NA	NA	"122460"	NA	NA	NA	NA	NA	"1533"	"119698"	"1533"	NA	NA	"1537"	"1537"	"63530"	"63530"	"63512"	"113909"	"122460"	NA	NA	NA	NA	NA	"113908"	"lineup1"	"0"	"0"	"0"	"no"	"no"	"1366"
"23"	""	"undefined"	"undefined"	"undefined"	"undefined"	"white"	"no"	"xpyriment"	"legacy"	"legacy"	"0"	"no"	"relative"	"undefined"	"undefined"	"0"	"5"	"5"	"0"	"0"	"0"	"5"	"0"	"0"	"5"	"0"	"0"	"0"	"0"	"0"	"0"	"0"	"0"	"5"	"7"	"0"	"0"	"0"	"0"	"0"	"5"	"816"	"496"	"02/14/18 14:53:48"	"Executes Python code"	"yes"	""	"lineup_liveMEN_W.osexp"	"C:\Users\Laptop10\Desktop\Wednesday 1402"	"no"	"mono"	"no"	"24"	"no"	"black"	"no"	"Continue"	"yes"	"768"	"No"	"No"	"no"	"No"	"legacy"	"5"	"0"	"5"	"0"	"C:/Users/Laptop10/Desktop/Wednesday 1402/subject-55.csv"	"6"	"xpyriment"	"Jazzy James"	"3.1.4"	"0"	"1"	"1"	"5789"	"5789"	"2"	"legacy"	"1024"	"2"	"48000"	"-16"	"experiment"	"55"	"odd"	"legacy"	"126571"	NA	"122460"	"126570"	NA	"150131"	NA	NA	"1533"	"119698"	"1533"	NA	NA	"1537"	"1537"	"63530"	"63530"	"63512"	"113909"	"150131"	"122659"	NA	"128884"	NA	NA	"113908"	"lineup1"	"0"	"0"	"0"	"no"	"no"	"1366"
"24"	""	"undefined"	"undefined"	"undefined"	"undefined"	"white"	"no"	"xpyriment"	"legacy"	"legacy"	"0"	"no"	"relative"	"undefined"	"undefined"	"0"	"5"	"5"	"0"	"0"	"0"	"5"	"0"	"0"	"5"	"0"	"0"	"0"	"0"	"0"	"0"	"0"	"0"	"5"	"7"	"0"	"0"	"0"	"0"	"0"	"5"	"816"	"496"	"02/14/18 14:53:48"	"Executes Python code"	"yes"	""	"lineup_liveMEN_W.osexp"	"C:\Users\Laptop10\Desktop\Wednesday 1402"	"no"	"mono"	"no"	"24"	"no"	"black"	"no"	"Click to end"	"yes"	"768"	"No"	"No"	"no"	"No"	"legacy"	"5"	"0"	"5"	"0"	"C:/Users/Laptop10/Desktop/Wednesday 1402/subject-55.csv"	"6"	"xpyriment"	"Jazzy James"	"3.1.4"	"0"	"1"	"1"	"5789"	"5789"	"2"	"legacy"	"1024"	"2"	"48000"	"-16"	"experiment"	"55"	"odd"	"legacy"	"126571"	NA	"122460"	"126570"	NA	"150131"	NA	"150160"	"1533"	"119698"	"1533"	NA	NA	"1537"	"1537"	"63530"	"63530"	"63512"	"113909"	"151992"	"122659"	NA	"128884"	NA	NA	"113908"	"lineup1"	"0"	"0"	"0"	"no"	"no"	"1366"
"25"	""	"undefined"	"undefined"	"undefined"	"undefined"	"white"	"no"	"xpyriment"	"legacy"	"legacy"	"0"	"no"	"relative"	"undefined"	"undefined"	"0"	"0"	"0"	"0"	"0"	"0"	"0"	"0"	"0"	"0"	"0"	"0"	"0"	"0"	"0"	"0"	"0"	"0"	"0"	"2"	"0"	"0"	"0"	"0"	"0"	"0"	"564"	"459"	"02/14/18 14:43:53"	"Executes Python code"	"yes"	""	"lineup_liveMEN_W.osexp"	"C:\Users\Laptop10\Desktop\Wednesday 1402"	"no"	"mono"	"no"	"24"	"no"	"black"	"no"	"Continue"	"yes"	"768"	"No"	"no"	"no"	"no"	"legacy"	"0"	"0"	"0"	"0"	"C:/Users/Laptop10/Desktop/Wednesday 1402/subject-56.csv"	"1"	"xpyriment"	"Jazzy James"	"3.1.4"	"0"	"1"	"1"	"13286"	"13286"	"2"	"legacy"	"1024"	"2"	"48000"	"-16"	"experiment"	"56"	"even"	"legacy"	NA	NA	"87780"	NA	NA	NA	NA	NA	"1602"	"80516"	"1602"	NA	NA	"1606"	"1606"	"67136"	"67136"	"67118"	"67230"	"87781"	NA	NA	NA	NA	NA	"67229"	"lineup1"	"0"	"0"	"0"	"no"	"no"	"1366"
"26"	""	"undefined"	"undefined"	"undefined"	"undefined"	"white"	"no"	"xpyriment"	"legacy"	"legacy"	"0"	"no"	"relative"	"undefined"	"undefined"	"0"	"1"	"1"	"0"	"0"	"0"	"1"	"0"	"0"	"1"	"0"	"0"	"0"	"0"	"0"	"0"	"0"	"0"	"1"	"3"	"0"	"0"	"0"	"0"	"0"	"1"	"534"	"293"	"02/14/18 14:43:53"	"Executes Python code"	"yes"	""	"lineup_liveMEN_W.osexp"	"C:\Users\Laptop10\Desktop\Wednesday 1402"	"no"	"mono"	"no"	"24"	"no"	"black"	"no"	"Continue"	"yes"	"768"	"No"	"no"	"no"	"no"	"legacy"	"1"	"0"	"1"	"0"	"C:/Users/Laptop10/Desktop/Wednesday 1402/subject-56.csv"	"2"	"xpyriment"	"Jazzy James"	"3.1.4"	"0"	"1"	"1"	"3633"	"3633"	"2"	"legacy"	"1024"	"2"	"48000"	"-16"	"experiment"	"56"	"even"	"legacy"	NA	NA	"94228"	NA	NA	NA	NA	NA	"1602"	"91540"	"1602"	NA	NA	"1606"	"1606"	"67136"	"67136"	"67118"	"87907"	"94228"	NA	NA	NA	NA	NA	"87906"	"lineup1"	"0"	"0"	"0"	"no"	"no"	"1366"
"27"	""	"undefined"	"undefined"	"undefined"	"undefined"	"white"	"no"	"xpyriment"	"legacy"	"legacy"	"0"	"no"	"relative"	"undefined"	"undefined"	"0"	"2"	"2"	"0"	"0"	"0"	"2"	"0"	"0"	"2"	"0"	"0"	"0"	"0"	"0"	"0"	"0"	"0"	"2"	"4"	"0"	"0"	"0"	"0"	"0"	"2"	"336"	"665"	"02/14/18 14:43:53"	"Executes Python code"	"yes"	""	"lineup_liveMEN_W.osexp"	"C:\Users\Laptop10\Desktop\Wednesday 1402"	"no"	"mono"	"no"	"24"	"no"	"black"	"no"	"Continue"	"yes"	"768"	"No"	"no"	"no"	"no"	"legacy"	"2"	"0"	"2"	"0"	"C:/Users/Laptop10/Desktop/Wednesday 1402/subject-56.csv"	"3"	"xpyriment"	"Jazzy James"	"3.1.4"	"0"	"1"	"1"	"7831"	"7831"	"2"	"legacy"	"1024"	"2"	"48000"	"-16"	"experiment"	"56"	"even"	"legacy"	NA	NA	"104950"	NA	NA	NA	NA	NA	"1602"	"102221"	"1602"	NA	NA	"1606"	"1606"	"67136"	"67136"	"67118"	"94389"	"104951"	NA	NA	NA	NA	NA	"94388"	"lineup1"	"0"	"0"	"0"	"no"	"no"	"1366"
"28"	""	"undefined"	"undefined"	"undefined"	"undefined"	"white"	"no"	"xpyriment"	"legacy"	"legacy"	"0"	"no"	"relative"	"undefined"	"undefined"	"0"	"3"	"3"	"0"	"0"	"0"	"3"	"0"	"0"	"3"	"0"	"0"	"0"	"0"	"0"	"0"	"0"	"0"	"3"	"5"	"0"	"0"	"0"	"0"	"0"	"3"	"206"	"658"	"02/14/18 14:43:53"	"Executes Python code"	"yes"	""	"lineup_liveMEN_W.osexp"	"C:\Users\Laptop10\Desktop\Wednesday 1402"	"no"	"mono"	"no"	"24"	"no"	"black"	"no"	"Continue"	"yes"	"768"	"No"	"no"	"no"	"no"	"legacy"	"3"	"0"	"3"	"0"	"C:/Users/Laptop10/Desktop/Wednesday 1402/subject-56.csv"	"4"	"xpyriment"	"Jazzy James"	"3.1.4"	"0"	"1"	"1"	"5613"	"5613"	"2"	"legacy"	"1024"	"2"	"48000"	"-16"	"experiment"	"56"	"even"	"legacy"	NA	NA	"113225"	NA	NA	NA	NA	NA	"1602"	"110692"	"1602"	NA	NA	"1606"	"1606"	"67136"	"67136"	"67118"	"105079"	"113225"	NA	NA	NA	NA	NA	"105079"	"lineup1"	"0"	"0"	"0"	"no"	"no"	"1366"
"29"	""	"undefined"	"undefined"	"undefined"	"undefined"	"white"	"no"	"xpyriment"	"legacy"	"legacy"	"0"	"no"	"relative"	"undefined"	"undefined"	"0"	"4"	"4"	"0"	"0"	"0"	"4"	"0"	"0"	"4"	"0"	"0"	"0"	"0"	"0"	"0"	"0"	"0"	"4"	"6"	"0"	"0"	"0"	"0"	"0"	"4"	"298"	"685"	"02/14/18 14:43:53"	"Executes Python code"	"yes"	""	"lineup_liveMEN_W.osexp"	"C:\Users\Laptop10\Desktop\Wednesday 1402"	"no"	"mono"	"no"	"24"	"no"	"black"	"no"	"Continue"	"yes"	"768"	"No"	"no"	"no"	"no"	"legacy"	"4"	"0"	"4"	"0"	"C:/Users/Laptop10/Desktop/Wednesday 1402/subject-56.csv"	"5"	"xpyriment"	"Jazzy James"	"3.1.4"	"0"	"1"	"1"	"5780"	"5780"	"2"	"legacy"	"1024"	"2"	"48000"	"-16"	"experiment"	"56"	"even"	"legacy"	NA	NA	"121808"	NA	NA	NA	NA	NA	"1602"	"119133"	"1602"	NA	NA	"1606"	"1606"	"67136"	"67136"	"67118"	"113352"	"121808"	NA	NA	NA	NA	NA	"113352"	"lineup1"	"0"	"0"	"0"	"no"	"no"	"1366"
"30"	""	"undefined"	"undefined"	"undefined"	"undefined"	"white"	"no"	"xpyriment"	"legacy"	"legacy"	"0"	"no"	"relative"	"undefined"	"undefined"	"0"	"5"	"5"	"0"	"0"	"0"	"5"	"0"	"0"	"5"	"0"	"0"	"0"	"0"	"0"	"0"	"0"	"0"	"5"	"7"	"0"	"0"	"0"	"0"	"0"	"5"	"69"	"673"	"02/14/18 14:43:53"	"Executes Python code"	"yes"	""	"lineup_liveMEN_W.osexp"	"C:\Users\Laptop10\Desktop\Wednesday 1402"	"no"	"mono"	"no"	"24"	"no"	"black"	"no"	"Continue"	"yes"	"768"	"No"	"no"	"no"	"no"	"legacy"	"5"	"0"	"5"	"0"	"C:/Users/Laptop10/Desktop/Wednesday 1402/subject-56.csv"	"6"	"xpyriment"	"Jazzy James"	"3.1.4"	"0"	"1"	"1"	"5413"	"5413"	"2"	"legacy"	"1024"	"2"	"48000"	"-16"	"experiment"	"56"	"even"	"legacy"	NA	NA	"129873"	NA	NA	NA	NA	NA	"1602"	"127348"	"1602"	NA	NA	"1606"	"1606"	"67136"	"67136"	"67118"	"121935"	"129874"	NA	NA	NA	NA	NA	"121934"	"lineup1"	"0"	"0"	"0"	"no"	"no"	"1366"
"31"	""	"undefined"	"undefined"	"undefined"	"undefined"	"white"	"no"	"xpyriment"	"legacy"	"legacy"	"0"	"no"	"relative"	"undefined"	"undefined"	"0"	"5"	"5"	"0"	"0"	"0"	"5"	"0"	"0"	"5"	"0"	"0"	"0"	"0"	"0"	"0"	"0"	"0"	"5"	"7"	"0"	"0"	"0"	"0"	"0"	"5"	"69"	"673"	"02/14/18 14:43:53"	"Executes Python code"	"yes"	""	"lineup_liveMEN_W.osexp"	"C:\Users\Laptop10\Desktop\Wednesday 1402"	"no"	"mono"	"no"	"24"	"no"	"black"	"no"	"Continue"	"yes"	"768"	"No"	"No"	"no"	"No"	"legacy"	"5"	"0"	"5"	"0"	"C:/Users/Laptop10/Desktop/Wednesday 1402/subject-56.csv"	"6"	"xpyriment"	"Jazzy James"	"3.1.4"	"0"	"1"	"1"	"5413"	"5413"	"2"	"legacy"	"1024"	"2"	"48000"	"-16"	"experiment"	"56"	"even"	"legacy"	"135247"	NA	"129873"	"135247"	NA	"163735"	NA	NA	"1602"	"127348"	"1602"	NA	NA	"1606"	"1606"	"67136"	"67136"	"67118"	"121935"	"163736"	"129908"	NA	"138972"	NA	NA	"121934"	"lineup1"	"0"	"0"	"0"	"no"	"no"	"1366"
"32"	""	"undefined"	"undefined"	"undefined"	"undefined"	"white"	"no"	"xpyriment"	"legacy"	"legacy"	"0"	"no"	"relative"	"undefined"	"undefined"	"0"	"5"	"5"	"0"	"0"	"0"	"5"	"0"	"0"	"5"	"0"	"0"	"0"	"0"	"0"	"0"	"0"	"0"	"5"	"7"	"0"	"0"	"0"	"0"	"0"	"5"	"69"	"673"	"02/14/18 14:43:53"	"Executes Python code"	"yes"	""	"lineup_liveMEN_W.osexp"	"C:\Users\Laptop10\Desktop\Wednesday 1402"	"no"	"mono"	"no"	"24"	"no"	"black"	"no"	"Click to end"	"yes"	"768"	"No"	"No"	"no"	"No"	"legacy"	"5"	"0"	"5"	"0"	"C:/Users/Laptop10/Desktop/Wednesday 1402/subject-56.csv"	"6"	"xpyriment"	"Jazzy James"	"3.1.4"	"0"	"1"	"1"	"5413"	"5413"	"2"	"legacy"	"1024"	"2"	"48000"	"-16"	"experiment"	"56"	"even"	"legacy"	"135247"	NA	"129873"	"135247"	NA	"163735"	NA	"163798"	"1602"	"127348"	"1602"	NA	NA	"1606"	"1606"	"67136"	"67136"	"67118"	"121935"	"165235"	"129908"	NA	"138972"	NA	NA	"121934"	"lineup1"	"0"	"0"	"0"	"no"	"no"	"1366"
"33"	""	"undefined"	"undefined"	"undefined"	"undefined"	"white"	"no"	"xpyriment"	"legacy"	"legacy"	"0"	"no"	"relative"	"undefined"	"undefined"	"0"	"0"	"0"	"0"	"0"	"0"	"0"	"0"	"0"	"0"	"0"	"0"	"0"	"0"	"0"	"0"	"0"	"0"	"0"	"2"	"0"	"0"	"0"	"0"	"0"	"0"	"298"	"510"	"02/14/18 15:43:53"	"Executes Python code"	"yes"	""	"lineup_liveMEN_W.osexp"	"C:\Users\Laptop10\Desktop\Wednesday 1402"	"no"	"mono"	"no"	"24"	"no"	"black"	"no"	"Continue"	"yes"	"768"	"Not sure"	"no"	"no"	"no"	"legacy"	"0"	"0"	"0"	"0"	"C:/Users/Laptop10/Desktop/Wednesday 1402/subject-58.csv"	"1"	"xpyriment"	"Jazzy James"	"3.1.4"	"0"	"1"	"1"	"23027"	"23027"	"2"	"legacy"	"1024"	"2"	"48000"	"-16"	"experiment"	"58"	"even"	"legacy"	NA	NA	"83770"	NA	NA	NA	NA	NA	"1626"	"80227"	"1627"	NA	NA	"1631"	"1631"	"57101"	"57101"	"57084"	"57200"	"83770"	NA	NA	NA	NA	NA	"57199"	"lineup1"	"0"	"0"	"0"	"no"	"no"	"1366"
"34"	""	"undefined"	"undefined"	"undefined"	"undefined"	"white"	"no"	"xpyriment"	"legacy"	"legacy"	"0"	"no"	"relative"	"undefined"	"undefined"	"0"	"1"	"1"	"0"	"0"	"0"	"1"	"0"	"0"	"1"	"0"	"0"	"0"	"0"	"0"	"0"	"0"	"0"	"1"	"3"	"0"	"0"	"0"	"0"	"0"	"1"	"1011"	"646"	"02/14/18 15:43:53"	"Executes Python code"	"yes"	""	"lineup_liveMEN_W.osexp"	"C:\Users\Laptop10\Desktop\Wednesday 1402"	"no"	"mono"	"no"	"24"	"no"	"black"	"no"	"Continue"	"yes"	"768"	"No"	"no"	"no"	"no"	"legacy"	"1"	"0"	"1"	"0"	"C:/Users/Laptop10/Desktop/Wednesday 1402/subject-58.csv"	"2"	"xpyriment"	"Jazzy James"	"3.1.4"	"0"	"1"	"1"	"12478"	"12478"	"2"	"legacy"	"1024"	"2"	"48000"	"-16"	"experiment"	"58"	"even"	"legacy"	NA	NA	"99425"	NA	NA	NA	NA	NA	"1626"	"96379"	"1627"	NA	NA	"1631"	"1631"	"57101"	"57101"	"57084"	"83901"	"99425"	NA	NA	NA	NA	NA	"83900"	"lineup1"	"0"	"0"	"0"	"no"	"no"	"1366"
"35"	""	"undefined"	"undefined"	"undefined"	"undefined"	"white"	"no"	"xpyriment"	"legacy"	"legacy"	"0"	"30"	"relative"	"undefined"	"undefined"	"0"	"2"	"2"	"0"	"0"	"0"	"2"	"0"	"0"	"2"	"0"	"0"	"0"	"0"	"0"	"0"	"0"	"0"	"2"	"4"	"0"	"0"	"0"	"0"	"0"	"2"	"1146"	"123"	"02/14/18 15:43:53"	"Executes Python code"	"yes"	""	"lineup_liveMEN_W.osexp"	"C:\Users\Laptop10\Desktop\Wednesday 1402"	"no"	"mono"	"no"	"24"	"no"	"black"	"no"	"Continue"	"yes"	"768"	"Yes"	"no"	"no"	"no"	"legacy"	"2"	"0"	"2"	"0"	"C:/Users/Laptop10/Desktop/Wednesday 1402/subject-58.csv"	"3"	"xpyriment"	"Jazzy James"	"3.1.4"	"0"	"1"	"1"	"13041"	"13041"	"2"	"legacy"	"1024"	"2"	"48000"	"-16"	"experiment"	"58"	"even"	"legacy"	NA	"123574"	"115956"	NA	NA	NA	"115957"	NA	"1626"	"112595"	"1627"	NA	NA	"1631"	"1631"	"57101"	"57101"	"57084"	"99554"	"123574"	NA	NA	NA	NA	NA	"99553"	"lineup1"	"0"	"0"	"0"	"no"	"no"	"1366"
"36"	""	"undefined"	"undefined"	"undefined"	"undefined"	"white"	"no"	"xpyriment"	"legacy"	"legacy"	"0"	"no"	"relative"	"undefined"	"undefined"	"0"	"3"	"3"	"0"	"0"	"0"	"3"	"0"	"0"	"3"	"0"	"0"	"0"	"0"	"0"	"0"	"0"	"0"	"3"	"5"	"0"	"0"	"0"	"0"	"0"	"3"	"850"	"351"	"02/14/18 15:43:53"	"Executes Python code"	"yes"	""	"lineup_liveMEN_W.osexp"	"C:\Users\Laptop10\Desktop\Wednesday 1402"	"no"	"mono"	"no"	"24"	"no"	"black"	"no"	"Continue"	"yes"	"768"	"No"	"no"	"no"	"no"	"legacy"	"3"	"0"	"3"	"0"	"C:/Users/Laptop10/Desktop/Wednesday 1402/subject-58.csv"	"4"	"xpyriment"	"Jazzy James"	"3.1.4"	"0"	"1"	"1"	"3372"	"3372"	"2"	"legacy"	"1024"	"2"	"48000"	"-16"	"experiment"	"58"	"even"	"legacy"	NA	"123574"	"129634"	NA	NA	NA	"115957"	NA	"1626"	"127075"	"1627"	NA	NA	"1631"	"1631"	"57101"	"57101"	"57084"	"123703"	"129634"	NA	NA	NA	NA	NA	"123702"	"lineup1"	"0"	"0"	"0"	"no"	"no"	"1366"
"37"	""	"undefined"	"undefined"	"undefined"	"undefined"	"white"	"no"	"xpyriment"	"legacy"	"legacy"	"0"	"no"	"relative"	"undefined"	"undefined"	"0"	"4"	"4"	"0"	"0"	"0"	"4"	"0"	"0"	"4"	"0"	"0"	"0"	"0"	"0"	"0"	"0"	"0"	"4"	"6"	"0"	"0"	"0"	"0"	"0"	"4"	"1362"	"613"	"02/14/18 15:43:53"	"Executes Python code"	"yes"	""	"lineup_liveMEN_W.osexp"	"C:\Users\Laptop10\Desktop\Wednesday 1402"	"no"	"mono"	"no"	"24"	"no"	"black"	"no"	"Continue"	"yes"	"768"	"No"	"no"	"no"	"no"	"legacy"	"4"	"0"	"4"	"0"	"C:/Users/Laptop10/Desktop/Wednesday 1402/subject-58.csv"	"5"	"xpyriment"	"Jazzy James"	"3.1.4"	"0"	"1"	"1"	"7620"	"7620"	"2"	"legacy"	"1024"	"2"	"48000"	"-16"	"experiment"	"58"	"even"	"legacy"	NA	"123574"	"142984"	NA	NA	NA	"115957"	NA	"1626"	"137387"	"1627"	NA	NA	"1631"	"1631"	"57101"	"57101"	"57084"	"129767"	"142984"	NA	NA	NA	NA	NA	"129766"	"lineup1"	"0"	"0"	"0"	"no"	"no"	"1366"
"38"	""	"undefined"	"undefined"	"undefined"	"undefined"	"white"	"no"	"xpyriment"	"legacy"	"legacy"	"0"	"no"	"relative"	"undefined"	"undefined"	"0"	"5"	"5"	"0"	"0"	"0"	"5"	"0"	"0"	"5"	"0"	"0"	"0"	"0"	"0"	"0"	"0"	"0"	"5"	"7"	"0"	"0"	"0"	"0"	"0"	"5"	"989"	"718"	"02/14/18 15:43:53"	"Executes Python code"	"yes"	""	"lineup_liveMEN_W.osexp"	"C:\Users\Laptop10\Desktop\Wednesday 1402"	"no"	"mono"	"no"	"24"	"no"	"black"	"no"	"Continue"	"yes"	"768"	"Not sure"	"no"	"no"	"no"	"legacy"	"5"	"0"	"5"	"0"	"C:/Users/Laptop10/Desktop/Wednesday 1402/subject-58.csv"	"6"	"xpyriment"	"Jazzy James"	"3.1.4"	"0"	"1"	"1"	"11008"	"11008"	"2"	"legacy"	"1024"	"2"	"48000"	"-16"	"experiment"	"58"	"even"	"legacy"	NA	"123574"	"157240"	NA	NA	NA	"115957"	NA	"1626"	"154147"	"1627"	NA	NA	"1631"	"1631"	"57101"	"57101"	"57084"	"143139"	"157240"	NA	NA	NA	NA	NA	"143137"	"lineup1"	"0"	"0"	"0"	"no"	"no"	"1366"
"39"	""	"undefined"	"undefined"	"undefined"	"undefined"	"white"	"no"	"xpyriment"	"legacy"	"legacy"	"0"	"no"	"relative"	"undefined"	"undefined"	"0"	"5"	"5"	"0"	"0"	"0"	"5"	"0"	"0"	"5"	"0"	"0"	"0"	"0"	"0"	"0"	"0"	"0"	"5"	"7"	"0"	"0"	"0"	"0"	"0"	"5"	"989"	"718"	"02/14/18 15:43:53"	"Executes Python code"	"yes"	""	"lineup_liveMEN_W.osexp"	"C:\Users\Laptop10\Desktop\Wednesday 1402"	"no"	"mono"	"no"	"24"	"no"	"black"	"no"	"Continue"	"yes"	"768"	"Not sure"	"Yes"	"One"	"No"	"legacy"	"5"	"0"	"5"	"0"	"C:/Users/Laptop10/Desktop/Wednesday 1402/subject-58.csv"	"6"	"xpyriment"	"Jazzy James"	"3.1.4"	"0"	"1"	"1"	"11008"	"11008"	"2"	"legacy"	"1024"	"2"	"48000"	"-16"	"experiment"	"58"	"even"	"legacy"	"165657"	"123574"	"157240"	"161111"	"165657"	"187813"	"115957"	NA	"1626"	"154147"	"1627"	NA	NA	"1631"	"1631"	"57101"	"57101"	"57084"	"143139"	"187813"	"157275"	"161111"	"168686"	NA	NA	"143137"	"lineup1"	"0"	"0"	"0"	"no"	"no"	"1366"
"40"	""	"undefined"	"undefined"	"undefined"	"undefined"	"white"	"no"	"xpyriment"	"legacy"	"legacy"	"0"	"no"	"relative"	"undefined"	"undefined"	"0"	"5"	"5"	"0"	"0"	"0"	"5"	"0"	"0"	"5"	"0"	"0"	"0"	"0"	"0"	"0"	"0"	"0"	"5"	"7"	"0"	"0"	"0"	"0"	"0"	"5"	"989"	"718"	"02/14/18 15:43:53"	"Executes Python code"	"yes"	""	"lineup_liveMEN_W.osexp"	"C:\Users\Laptop10\Desktop\Wednesday 1402"	"no"	"mono"	"no"	"24"	"no"	"black"	"no"	"Click to end"	"yes"	"768"	"Not sure"	"Yes"	"One"	"No"	"legacy"	"5"	"0"	"5"	"0"	"C:/Users/Laptop10/Desktop/Wednesday 1402/subject-58.csv"	"6"	"xpyriment"	"Jazzy James"	"3.1.4"	"0"	"1"	"1"	"11008"	"11008"	"2"	"legacy"	"1024"	"2"	"48000"	"-16"	"experiment"	"58"	"even"	"legacy"	"165657"	"123574"	"157240"	"161111"	"165657"	"187813"	"115957"	"187843"	"1626"	"154147"	"1627"	NA	NA	"1631"	"1631"	"57101"	"57101"	"57084"	"143139"	"189812"	"157275"	"161111"	"168686"	NA	NA	"143137"	"lineup1"	"0"	"0"	"0"	"no"	"no"	"1366"
"41"	""	"undefined"	"undefined"	"undefined"	"undefined"	"white"	"no"	"xpyriment"	"legacy"	"legacy"	"0"	"no"	"relative"	"undefined"	"undefined"	"0"	"0"	"0"	"0"	"0"	"0"	"0"	"0"	"0"	"0"	"0"	"0"	"0"	"0"	"0"	"0"	"0"	"0"	"0"	"2"	"0"	"0"	"0"	"0"	"0"	"0"	"675"	"756"	"02/14/18 15:23:02"	"Executes Python code"	"yes"	""	"lineup_liveMEN_W.osexp"	"C:\Users\Laptop10\Desktop\Wednesday 1402"	"no"	"mono"	"no"	"24"	"no"	"black"	"no"	"Continue"	"yes"	"768"	"No"	"no"	"no"	"no"	"legacy"	"0"	"0"	"0"	"0"	"C:/Users/Laptop10/Desktop/Wednesday 1402/subject-59.csv"	"1"	"xpyriment"	"Jazzy James"	"3.1.4"	"0"	"1"	"1"	"14293"	"14293"	"2"	"legacy"	"1024"	"2"	"48000"	"-16"	"experiment"	"59"	"odd"	"legacy"	NA	NA	"65264"	NA	NA	NA	NA	NA	"1583"	"61215"	"1583"	NA	NA	"1587"	"1587"	"46825"	"46825"	"46808"	"46921"	"65264"	NA	NA	NA	NA	NA	"46920"	"lineup1"	"0"	"0"	"0"	"no"	"no"	"1366"
"42"	""	"undefined"	"undefined"	"undefined"	"undefined"	"white"	"no"	"xpyriment"	"legacy"	"legacy"	"0"	"no"	"relative"	"undefined"	"undefined"	"0"	"1"	"1"	"0"	"0"	"0"	"1"	"0"	"0"	"1"	"0"	"0"	"0"	"0"	"0"	"0"	"0"	"0"	"1"	"3"	"0"	"0"	"0"	"0"	"0"	"1"	"751"	"705"	"02/14/18 15:23:02"	"Executes Python code"	"yes"	""	"lineup_liveMEN_W.osexp"	"C:\Users\Laptop10\Desktop\Wednesday 1402"	"no"	"mono"	"no"	"24"	"no"	"black"	"no"	"Continue"	"yes"	"768"	"No"	"no"	"no"	"no"	"legacy"	"1"	"0"	"1"	"0"	"C:/Users/Laptop10/Desktop/Wednesday 1402/subject-59.csv"	"2"	"xpyriment"	"Jazzy James"	"3.1.4"	"0"	"1"	"1"	"5843"	"5843"	"2"	"legacy"	"1024"	"2"	"48000"	"-16"	"experiment"	"59"	"odd"	"legacy"	NA	NA	"74096"	NA	NA	NA	NA	NA	"1583"	"71238"	"1583"	NA	NA	"1587"	"1587"	"46825"	"46825"	"46808"	"65395"	"74097"	NA	NA	NA	NA	NA	"65394"	"lineup1"	"0"	"0"	"0"	"no"	"no"	"1366"
"43"	""	"undefined"	"undefined"	"undefined"	"undefined"	"white"	"no"	"xpyriment"	"legacy"	"legacy"	"0"	"no"	"relative"	"undefined"	"undefined"	"0"	"2"	"2"	"0"	"0"	"0"	"2"	"0"	"0"	"2"	"0"	"0"	"0"	"0"	"0"	"0"	"0"	"0"	"2"	"4"	"0"	"0"	"0"	"0"	"0"	"2"	"1350"	"711"	"02/14/18 15:23:02"	"Executes Python code"	"yes"	""	"lineup_liveMEN_W.osexp"	"C:\Users\Laptop10\Desktop\Wednesday 1402"	"no"	"mono"	"no"	"24"	"no"	"black"	"no"	"Continue"	"yes"	"768"	"No"	"no"	"no"	"no"	"legacy"	"2"	"0"	"2"	"0"	"C:/Users/Laptop10/Desktop/Wednesday 1402/subject-59.csv"	"3"	"xpyriment"	"Jazzy James"	"3.1.4"	"0"	"1"	"1"	"8027"	"8027"	"2"	"legacy"	"1024"	"2"	"48000"	"-16"	"experiment"	"59"	"odd"	"legacy"	NA	NA	"84482"	NA	NA	NA	NA	NA	"1583"	"82254"	"1583"	NA	NA	"1587"	"1587"	"46825"	"46825"	"46808"	"74227"	"84482"	NA	NA	NA	NA	NA	"74226"	"lineup1"	"0"	"0"	"0"	"no"	"no"	"1366"
"44"	""	"undefined"	"undefined"	"undefined"	"undefined"	"white"	"no"	"xpyriment"	"legacy"	"legacy"	"0"	"no"	"relative"	"undefined"	"undefined"	"0"	"3"	"3"	"0"	"0"	"0"	"3"	"0"	"0"	"3"	"0"	"0"	"0"	"0"	"0"	"0"	"0"	"0"	"3"	"5"	"0"	"0"	"0"	"0"	"0"	"3"	"536"	"627"	"02/14/18 15:23:02"	"Executes Python code"	"yes"	""	"lineup_liveMEN_W.osexp"	"C:\Users\Laptop10\Desktop\Wednesday 1402"	"no"	"mono"	"no"	"24"	"no"	"black"	"no"	"Continue"	"yes"	"768"	"No"	"no"	"no"	"no"	"legacy"	"3"	"0"	"3"	"0"	"C:/Users/Laptop10/Desktop/Wednesday 1402/subject-59.csv"	"4"	"xpyriment"	"Jazzy James"	"3.1.4"	"0"	"1"	"1"	"2978"	"2978"	"2"	"legacy"	"1024"	"2"	"48000"	"-16"	"experiment"	"59"	"odd"	"legacy"	NA	NA	"90003"	NA	NA	NA	NA	NA	"1583"	"87590"	"1583"	NA	NA	"1587"	"1587"	"46825"	"46825"	"46808"	"84612"	"90003"	NA	NA	NA	NA	NA	"84611"	"lineup1"	"0"	"0"	"0"	"no"	"no"	"1366"
"45"	""	"undefined"	"undefined"	"undefined"	"undefined"	"white"	"no"	"xpyriment"	"legacy"	"legacy"	"0"	"no"	"relative"	"undefined"	"undefined"	"0"	"4"	"4"	"0"	"0"	"0"	"4"	"0"	"0"	"4"	"0"	"0"	"0"	"0"	"0"	"0"	"0"	"0"	"4"	"6"	"0"	"0"	"0"	"0"	"0"	"4"	"340"	"630"	"02/14/18 15:23:02"	"Executes Python code"	"yes"	""	"lineup_liveMEN_W.osexp"	"C:\Users\Laptop10\Desktop\Wednesday 1402"	"no"	"mono"	"no"	"24"	"no"	"black"	"no"	"Continue"	"yes"	"768"	"Not sure"	"no"	"no"	"no"	"legacy"	"4"	"0"	"4"	"0"	"C:/Users/Laptop10/Desktop/Wednesday 1402/subject-59.csv"	"5"	"xpyriment"	"Jazzy James"	"3.1.4"	"0"	"1"	"1"	"9447"	"9447"	"2"	"legacy"	"1024"	"2"	"48000"	"-16"	"experiment"	"59"	"odd"	"legacy"	NA	NA	"104407"	NA	NA	NA	NA	NA	"1583"	"99582"	"1583"	NA	NA	"1587"	"1587"	"46825"	"46825"	"46808"	"90135"	"104407"	NA	NA	NA	NA	NA	"90133"	"lineup1"	"0"	"0"	"0"	"no"	"no"	"1366"
"46"	""	"undefined"	"undefined"	"undefined"	"undefined"	"white"	"no"	"xpyriment"	"legacy"	"legacy"	"0"	"no"	"relative"	"undefined"	"undefined"	"0"	"5"	"5"	"0"	"0"	"0"	"5"	"0"	"0"	"5"	"0"	"0"	"0"	"0"	"0"	"0"	"0"	"0"	"5"	"7"	"0"	"0"	"0"	"0"	"0"	"5"	"692"	"570"	"02/14/18 15:23:02"	"Executes Python code"	"yes"	""	"lineup_liveMEN_W.osexp"	"C:\Users\Laptop10\Desktop\Wednesday 1402"	"no"	"mono"	"no"	"24"	"no"	"black"	"no"	"Continue"	"yes"	"768"	"No"	"no"	"no"	"no"	"legacy"	"5"	"0"	"5"	"0"	"C:/Users/Laptop10/Desktop/Wednesday 1402/subject-59.csv"	"6"	"xpyriment"	"Jazzy James"	"3.1.4"	"0"	"1"	"1"	"5076"	"5076"	"2"	"legacy"	"1024"	"2"	"48000"	"-16"	"experiment"	"59"	"odd"	"legacy"	NA	NA	"111705"	NA	NA	NA	NA	NA	"1583"	"109614"	"1583"	NA	NA	"1587"	"1587"	"46825"	"46825"	"46808"	"104537"	"111706"	NA	NA	NA	NA	NA	"104536"	"lineup1"	"0"	"0"	"0"	"no"	"no"	"1366"
"47"	""	"undefined"	"undefined"	"undefined"	"undefined"	"white"	"no"	"xpyriment"	"legacy"	"legacy"	"0"	"no"	"relative"	"undefined"	"undefined"	"0"	"5"	"5"	"0"	"0"	"0"	"5"	"0"	"0"	"5"	"0"	"0"	"0"	"0"	"0"	"0"	"0"	"0"	"5"	"7"	"0"	"0"	"0"	"0"	"0"	"5"	"692"	"570"	"02/14/18 15:23:02"	"Executes Python code"	"yes"	""	"lineup_liveMEN_W.osexp"	"C:\Users\Laptop10\Desktop\Wednesday 1402"	"no"	"mono"	"no"	"24"	"no"	"black"	"no"	"Continue"	"yes"	"768"	"No"	"No"	"no"	"No"	"legacy"	"5"	"0"	"5"	"0"	"C:/Users/Laptop10/Desktop/Wednesday 1402/subject-59.csv"	"6"	"xpyriment"	"Jazzy James"	"3.1.4"	"0"	"1"	"1"	"5076"	"5076"	"2"	"legacy"	"1024"	"2"	"48000"	"-16"	"experiment"	"59"	"odd"	"legacy"	"116673"	NA	"111705"	"116672"	NA	"145452"	NA	NA	"1583"	"109614"	"1583"	NA	NA	"1587"	"1587"	"46825"	"46825"	"46808"	"104537"	"145452"	"111740"	NA	"119199"	NA	NA	"104536"	"lineup1"	"0"	"0"	"0"	"no"	"no"	"1366"
"48"	""	"undefined"	"undefined"	"undefined"	"undefined"	"white"	"no"	"xpyriment"	"legacy"	"legacy"	"0"	"no"	"relative"	"undefined"	"undefined"	"0"	"5"	"5"	"0"	"0"	"0"	"5"	"0"	"0"	"5"	"0"	"0"	"0"	"0"	"0"	"0"	"0"	"0"	"5"	"7"	"0"	"0"	"0"	"0"	"0"	"5"	"692"	"570"	"02/14/18 15:23:02"	"Executes Python code"	"yes"	""	"lineup_liveMEN_W.osexp"	"C:\Users\Laptop10\Desktop\Wednesday 1402"	"no"	"mono"	"no"	"24"	"no"	"black"	"no"	"Click to end"	"yes"	"768"	"No"	"No"	"no"	"No"	"legacy"	"5"	"0"	"5"	"0"	"C:/Users/Laptop10/Desktop/Wednesday 1402/subject-59.csv"	"6"	"xpyriment"	"Jazzy James"	"3.1.4"	"0"	"1"	"1"	"5076"	"5076"	"2"	"legacy"	"1024"	"2"	"48000"	"-16"	"experiment"	"59"	"odd"	"legacy"	"116673"	NA	"111705"	"116672"	NA	"145452"	NA	"145482"	"1583"	"109614"	"1583"	NA	NA	"1587"	"1587"	"46825"	"46825"	"46808"	"104537"	"192270"	"111740"	NA	"119199"	NA	NA	"104536"	"lineup1"	"0"	"0"	"0"	"no"	"no"	"1366"
"49"	""	"undefined"	"undefined"	"undefined"	"undefined"	"white"	"no"	"xpyriment"	"legacy"	"legacy"	"0"	"no"	"relative"	"undefined"	"undefined"	"0"	"0"	"0"	"0"	"0"	"0"	"0"	"0"	"0"	"0"	"0"	"0"	"0"	"0"	"0"	"0"	"0"	"0"	"0"	"2"	"0"	"0"	"0"	"0"	"0"	"0"	"703"	"750"	"02/14/18 15:36:02"	"Executes Python code"	"yes"	""	"lineup_liveMEN_W.osexp"	"C:\Users\Laptop10\Desktop\Wednesday 1402"	"no"	"mono"	"no"	"24"	"no"	"black"	"no"	"Continue"	"yes"	"768"	"No"	"no"	"no"	"no"	"legacy"	"0"	"0"	"0"	"0"	"C:/Users/Laptop10/Desktop/Wednesday 1402/subject-60.csv"	"1"	"xpyriment"	"Jazzy James"	"3.1.4"	"0"	"1"	"1"	"12892"	"12892"	"2"	"legacy"	"1024"	"2"	"48000"	"-16"	"experiment"	"60"	"even"	"legacy"	NA	NA	"71583"	NA	NA	NA	NA	NA	"1629"	"67519"	"1629"	NA	NA	"1633"	"1633"	"54532"	"54532"	"54514"	"54627"	"71583"	NA	NA	NA	NA	NA	"54626"	"lineup1"	"0"	"0"	"0"	"no"	"no"	"1366"
"50"	""	"undefined"	"undefined"	"undefined"	"undefined"	"white"	"no"	"xpyriment"	"legacy"	"legacy"	"0"	"no"	"relative"	"undefined"	"undefined"	"0"	"1"	"1"	"0"	"0"	"0"	"1"	"0"	"0"	"1"	"0"	"0"	"0"	"0"	"0"	"0"	"0"	"0"	"1"	"3"	"0"	"0"	"0"	"0"	"0"	"1"	"589"	"595"	"02/14/18 15:36:02"	"Executes Python code"	"yes"	""	"lineup_liveMEN_W.osexp"	"C:\Users\Laptop10\Desktop\Wednesday 1402"	"no"	"mono"	"no"	"24"	"no"	"black"	"no"	"Continue"	"yes"	"768"	"No"	"no"	"no"	"no"	"legacy"	"1"	"0"	"1"	"0"	"C:/Users/Laptop10/Desktop/Wednesday 1402/subject-60.csv"	"2"	"xpyriment"	"Jazzy James"	"3.1.4"	"0"	"1"	"1"	"6506"	"6506"	"2"	"legacy"	"1024"	"2"	"48000"	"-16"	"experiment"	"60"	"even"	"legacy"	NA	NA	"81419"	NA	NA	NA	NA	NA	"1629"	"78222"	"1629"	NA	NA	"1633"	"1633"	"54532"	"54532"	"54514"	"71716"	"81420"	NA	NA	NA	NA	NA	"71715"	"lineup1"	"0"	"0"	"0"	"no"	"no"	"1366"
"51"	""	"undefined"	"undefined"	"undefined"	"undefined"	"white"	"no"	"xpyriment"	"legacy"	"legacy"	"0"	"no"	"relative"	"undefined"	"undefined"	"0"	"2"	"2"	"0"	"0"	"0"	"2"	"0"	"0"	"2"	"0"	"0"	"0"	"0"	"0"	"0"	"0"	"0"	"2"	"4"	"0"	"0"	"0"	"0"	"0"	"2"	"394"	"221"	"02/14/18 15:36:02"	"Executes Python code"	"yes"	""	"lineup_liveMEN_W.osexp"	"C:\Users\Laptop10\Desktop\Wednesday 1402"	"no"	"mono"	"no"	"24"	"no"	"black"	"no"	"Continue"	"yes"	"768"	"No"	"no"	"no"	"no"	"legacy"	"2"	"0"	"2"	"0"	"C:/Users/Laptop10/Desktop/Wednesday 1402/subject-60.csv"	"3"	"xpyriment"	"Jazzy James"	"3.1.4"	"0"	"1"	"1"	"4628"	"4628"	"2"	"legacy"	"1024"	"2"	"48000"	"-16"	"experiment"	"60"	"even"	"legacy"	NA	NA	"89218"	NA	NA	NA	NA	NA	"1629"	"86175"	"1629"	NA	NA	"1633"	"1633"	"54532"	"54532"	"54514"	"81546"	"89218"	NA	NA	NA	NA	NA	"81545"	"lineup1"	"0"	"0"	"0"	"no"	"no"	"1366"
"52"	""	"undefined"	"undefined"	"undefined"	"undefined"	"white"	"no"	"xpyriment"	"legacy"	"legacy"	"0"	"no"	"relative"	"undefined"	"undefined"	"0"	"3"	"3"	"0"	"0"	"0"	"3"	"0"	"0"	"3"	"0"	"0"	"0"	"0"	"0"	"0"	"0"	"0"	"3"	"5"	"0"	"0"	"0"	"0"	"0"	"3"	"414"	"582"	"02/14/18 15:36:02"	"Executes Python code"	"yes"	""	"lineup_liveMEN_W.osexp"	"C:\Users\Laptop10\Desktop\Wednesday 1402"	"no"	"mono"	"no"	"24"	"no"	"black"	"no"	"Continue"	"yes"	"768"	"No"	"no"	"no"	"no"	"legacy"	"3"	"0"	"3"	"0"	"C:/Users/Laptop10/Desktop/Wednesday 1402/subject-60.csv"	"4"	"xpyriment"	"Jazzy James"	"3.1.4"	"0"	"1"	"1"	"12247"	"12247"	"2"	"legacy"	"1024"	"2"	"48000"	"-16"	"experiment"	"60"	"even"	"legacy"	NA	NA	"104790"	NA	NA	NA	NA	NA	"1629"	"101599"	"1629"	NA	NA	"1633"	"1633"	"54532"	"54532"	"54514"	"89351"	"104790"	NA	NA	NA	NA	NA	"89350"	"lineup1"	"0"	"0"	"0"	"no"	"no"	"1366"
"53"	""	"undefined"	"undefined"	"undefined"	"undefined"	"white"	"no"	"xpyriment"	"legacy"	"legacy"	"0"	"no"	"relative"	"undefined"	"undefined"	"0"	"4"	"4"	"0"	"0"	"0"	"4"	"0"	"0"	"4"	"0"	"0"	"0"	"0"	"0"	"0"	"0"	"0"	"4"	"6"	"0"	"0"	"0"	"0"	"0"	"4"	"539"	"134"	"02/14/18 15:36:02"	"Executes Python code"	"yes"	""	"lineup_liveMEN_W.osexp"	"C:\Users\Laptop10\Desktop\Wednesday 1402"	"no"	"mono"	"no"	"24"	"no"	"black"	"no"	"Continue"	"yes"	"768"	"No"	"no"	"no"	"no"	"legacy"	"4"	"0"	"4"	"0"	"C:/Users/Laptop10/Desktop/Wednesday 1402/subject-60.csv"	"5"	"xpyriment"	"Jazzy James"	"3.1.4"	"0"	"1"	"1"	"4173"	"4173"	"2"	"legacy"	"1024"	"2"	"48000"	"-16"	"experiment"	"60"	"even"	"legacy"	NA	NA	"111652"	NA	NA	NA	NA	NA	"1629"	"109094"	"1629"	NA	NA	"1633"	"1633"	"54532"	"54532"	"54514"	"104921"	"111652"	NA	NA	NA	NA	NA	"104920"	"lineup1"	"0"	"0"	"0"	"no"	"no"	"1366"
"54"	""	"undefined"	"undefined"	"undefined"	"undefined"	"white"	"no"	"xpyriment"	"legacy"	"legacy"	"0"	"no"	"relative"	"undefined"	"undefined"	"0"	"5"	"5"	"0"	"0"	"0"	"5"	"0"	"0"	"5"	"0"	"0"	"0"	"0"	"0"	"0"	"0"	"0"	"5"	"7"	"0"	"0"	"0"	"0"	"0"	"5"	"498"	"439"	"02/14/18 15:36:02"	"Executes Python code"	"yes"	""	"lineup_liveMEN_W.osexp"	"C:\Users\Laptop10\Desktop\Wednesday 1402"	"no"	"mono"	"no"	"24"	"no"	"black"	"no"	"Continue"	"yes"	"768"	"No"	"no"	"no"	"no"	"legacy"	"5"	"0"	"5"	"0"	"C:/Users/Laptop10/Desktop/Wednesday 1402/subject-60.csv"	"6"	"xpyriment"	"Jazzy James"	"3.1.4"	"0"	"1"	"1"	"6635"	"6635"	"2"	"legacy"	"1024"	"2"	"48000"	"-16"	"experiment"	"60"	"even"	"legacy"	NA	NA	"121141"	NA	NA	NA	NA	NA	"1629"	"118422"	"1629"	NA	NA	"1633"	"1633"	"54532"	"54532"	"54514"	"111786"	"121142"	NA	NA	NA	NA	NA	"111785"	"lineup1"	"0"	"0"	"0"	"no"	"no"	"1366"
"55"	""	"undefined"	"undefined"	"undefined"	"undefined"	"white"	"no"	"xpyriment"	"legacy"	"legacy"	"0"	"no"	"relative"	"undefined"	"undefined"	"0"	"5"	"5"	"0"	"0"	"0"	"5"	"0"	"0"	"5"	"0"	"0"	"0"	"0"	"0"	"0"	"0"	"0"	"5"	"7"	"0"	"0"	"0"	"0"	"0"	"5"	"498"	"439"	"02/14/18 15:36:02"	"Executes Python code"	"yes"	""	"lineup_liveMEN_W.osexp"	"C:\Users\Laptop10\Desktop\Wednesday 1402"	"no"	"mono"	"no"	"24"	"no"	"black"	"no"	"Continue"	"yes"	"768"	"No"	"No"	"no"	"No"	"legacy"	"5"	"0"	"5"	"0"	"C:/Users/Laptop10/Desktop/Wednesday 1402/subject-60.csv"	"6"	"xpyriment"	"Jazzy James"	"3.1.4"	"0"	"1"	"1"	"6635"	"6635"	"2"	"legacy"	"1024"	"2"	"48000"	"-16"	"experiment"	"60"	"even"	"legacy"	"124541"	NA	"121141"	"124541"	NA	"146266"	NA	NA	"1629"	"118422"	"1629"	NA	NA	"1633"	"1633"	"54532"	"54532"	"54514"	"111786"	"146267"	"121177"	NA	"128190"	NA	NA	"111785"	"lineup1"	"0"	"0"	"0"	"no"	"no"	"1366"
"56"	""	"undefined"	"undefined"	"undefined"	"undefined"	"white"	"no"	"xpyriment"	"legacy"	"legacy"	"0"	"no"	"relative"	"undefined"	"undefined"	"0"	"5"	"5"	"0"	"0"	"0"	"5"	"0"	"0"	"5"	"0"	"0"	"0"	"0"	"0"	"0"	"0"	"0"	"5"	"7"	"0"	"0"	"0"	"0"	"0"	"5"	"498"	"439"	"02/14/18 15:36:02"	"Executes Python code"	"yes"	""	"lineup_liveMEN_W.osexp"	"C:\Users\Laptop10\Desktop\Wednesday 1402"	"no"	"mono"	"no"	"24"	"no"	"black"	"no"	"Click to end"	"yes"	"768"	"No"	"No"	"no"	"No"	"legacy"	"5"	"0"	"5"	"0"	"C:/Users/Laptop10/Desktop/Wednesday 1402/subject-60.csv"	"6"	"xpyriment"	"Jazzy James"	"3.1.4"	"0"	"1"	"1"	"6635"	"6635"	"2"	"legacy"	"1024"	"2"	"48000"	"-16"	"experiment"	"60"	"even"	"legacy"	"124541"	NA	"121141"	"124541"	NA	"146266"	NA	"146296"	"1629"	"118422"	"1629"	NA	NA	"1633"	"1633"	"54532"	"54532"	"54514"	"111786"	"147358"	"121177"	NA	"128190"	NA	NA	"111785"	"lineup1"	"0"	"0"	"0"	"no"	"no"	"1366"
"57"	""	"undefined"	"undefined"	"undefined"	"undefined"	"white"	"no"	"xpyriment"	"legacy"	"legacy"	"0"	"no"	"relative"	"undefined"	"undefined"	"0"	"0"	"0"	"0"	"0"	"0"	"0"	"0"	"0"	"0"	"0"	"0"	"0"	"0"	"0"	"0"	"0"	"0"	"0"	"2"	"0"	"0"	"0"	"0"	"0"	"0"	"324"	"614"	"02/14/18 15:01:05"	"Executes Python code"	"yes"	""	"lineup_liveMEN_W.osexp"	"C:\Users\Laptop10\Desktop\Wednesday 1402"	"no"	"mono"	"no"	"24"	"no"	"black"	"no"	"Continue"	"yes"	"768"	"No"	"no"	"no"	"no"	"legacy"	"0"	"0"	"0"	"0"	"C:/Users/Laptop10/Desktop/Wednesday 1402/subject-75.csv"	"1"	"xpyriment"	"Jazzy James"	"3.1.4"	"0"	"1"	"1"	"8811"	"8811"	"2"	"legacy"	"1024"	"2"	"48000"	"-16"	"experiment"	"75"	"odd"	"legacy"	NA	NA	"82281"	NA	NA	NA	NA	NA	"1543"	"72420"	"1543"	NA	NA	"1547"	"1547"	"63512"	"63512"	"63494"	"63608"	"82282"	NA	NA	NA	NA	NA	"63607"	"lineup1"	"0"	"0"	"0"	"no"	"no"	"1366"
"58"	""	"undefined"	"undefined"	"undefined"	"undefined"	"white"	"no"	"xpyriment"	"legacy"	"legacy"	"0"	"no"	"relative"	"undefined"	"undefined"	"0"	"1"	"1"	"0"	"0"	"0"	"1"	"0"	"0"	"1"	"0"	"0"	"0"	"0"	"0"	"0"	"0"	"0"	"1"	"3"	"0"	"0"	"0"	"0"	"0"	"1"	"615"	"743"	"02/14/18 15:01:05"	"Executes Python code"	"yes"	""	"lineup_liveMEN_W.osexp"	"C:\Users\Laptop10\Desktop\Wednesday 1402"	"no"	"mono"	"no"	"24"	"no"	"black"	"no"	"Continue"	"yes"	"768"	"No"	"no"	"no"	"no"	"legacy"	"1"	"0"	"1"	"0"	"C:/Users/Laptop10/Desktop/Wednesday 1402/subject-75.csv"	"2"	"xpyriment"	"Jazzy James"	"3.1.4"	"0"	"7"	"7"	"5204"	"5204"	"2"	"legacy"	"1024"	"2"	"48000"	"-16"	"experiment"	"75"	"odd"	"legacy"	NA	NA	"103346"	NA	NA	NA	NA	NA	"1543"	"87620"	"1543"	NA	NA	"1547"	"1547"	"63512"	"63512"	"63494"	"82415"	"103346"	NA	NA	NA	NA	NA	"82414"	"lineup1"	"0"	"0"	"0"	"no"	"no"	"1366"
"59"	""	"undefined"	"undefined"	"undefined"	"undefined"	"white"	"no"	"xpyriment"	"legacy"	"legacy"	"0"	"no"	"relative"	"undefined"	"undefined"	"0"	"2"	"2"	"0"	"0"	"0"	"2"	"0"	"0"	"2"	"0"	"0"	"0"	"0"	"0"	"0"	"0"	"0"	"2"	"4"	"0"	"0"	"0"	"0"	"0"	"2"	"811"	"629"	"02/14/18 15:01:05"	"Executes Python code"	"yes"	""	"lineup_liveMEN_W.osexp"	"C:\Users\Laptop10\Desktop\Wednesday 1402"	"no"	"mono"	"no"	"24"	"no"	"black"	"no"	"Continue"	"yes"	"768"	"No"	"no"	"no"	"no"	"legacy"	"2"	"0"	"2"	"0"	"C:/Users/Laptop10/Desktop/Wednesday 1402/subject-75.csv"	"3"	"xpyriment"	"Jazzy James"	"3.1.4"	"0"	"1"	"1"	"9167"	"9167"	"2"	"legacy"	"1024"	"2"	"48000"	"-16"	"experiment"	"75"	"odd"	"legacy"	NA	NA	"117386"	NA	NA	NA	NA	NA	"1543"	"112651"	"1543"	NA	NA	"1547"	"1547"	"63512"	"63512"	"63494"	"103484"	"117387"	NA	NA	NA	NA	NA	"103483"	"lineup1"	"0"	"0"	"0"	"no"	"no"	"1366"
"60"	""	"undefined"	"undefined"	"undefined"	"undefined"	"white"	"no"	"xpyriment"	"legacy"	"legacy"	"0"	"no"	"relative"	"undefined"	"undefined"	"0"	"3"	"3"	"0"	"0"	"0"	"3"	"0"	"0"	"3"	"0"	"0"	"0"	"0"	"0"	"0"	"0"	"0"	"3"	"5"	"0"	"0"	"0"	"0"	"0"	"3"	"794"	"447"	"02/14/18 15:01:05"	"Executes Python code"	"yes"	""	"lineup_liveMEN_W.osexp"	"C:\Users\Laptop10\Desktop\Wednesday 1402"	"no"	"mono"	"no"	"24"	"no"	"black"	"no"	"Continue"	"yes"	"768"	"No"	"no"	"no"	"no"	"legacy"	"3"	"0"	"3"	"0"	"C:/Users/Laptop10/Desktop/Wednesday 1402/subject-75.csv"	"4"	"xpyriment"	"Jazzy James"	"3.1.4"	"0"	"1"	"1"	"5488"	"5488"	"2"	"legacy"	"1024"	"2"	"48000"	"-16"	"experiment"	"75"	"odd"	"legacy"	NA	NA	"126997"	NA	NA	NA	NA	NA	"1543"	"123003"	"1543"	NA	NA	"1547"	"1547"	"63512"	"63512"	"63494"	"117515"	"126997"	NA	NA	NA	NA	NA	"117514"	"lineup1"	"0"	"0"	"0"	"no"	"no"	"1366"
"61"	""	"undefined"	"undefined"	"undefined"	"undefined"	"white"	"no"	"xpyriment"	"legacy"	"legacy"	"0"	"no"	"relative"	"undefined"	"undefined"	"0"	"4"	"4"	"0"	"0"	"0"	"4"	"0"	"0"	"4"	"0"	"0"	"0"	"0"	"0"	"0"	"0"	"0"	"4"	"6"	"0"	"0"	"0"	"0"	"0"	"4"	"836"	"547"	"02/14/18 15:01:05"	"Executes Python code"	"yes"	""	"lineup_liveMEN_W.osexp"	"C:\Users\Laptop10\Desktop\Wednesday 1402"	"no"	"mono"	"no"	"24"	"no"	"black"	"no"	"Continue"	"yes"	"768"	"No"	"no"	"no"	"no"	"legacy"	"4"	"0"	"4"	"0"	"C:/Users/Laptop10/Desktop/Wednesday 1402/subject-75.csv"	"5"	"xpyriment"	"Jazzy James"	"3.1.4"	"0"	"1"	"1"	"7429"	"7429"	"2"	"legacy"	"1024"	"2"	"48000"	"-16"	"experiment"	"75"	"odd"	"legacy"	NA	NA	"139796"	NA	NA	NA	NA	NA	"1543"	"134555"	"1543"	NA	NA	"1547"	"1547"	"63512"	"63512"	"63494"	"127125"	"139797"	NA	NA	NA	NA	NA	"127124"	"lineup1"	"0"	"0"	"0"	"no"	"no"	"1366"
"62"	""	"undefined"	"undefined"	"undefined"	"undefined"	"white"	"no"	"xpyriment"	"legacy"	"legacy"	"0"	"no"	"relative"	"undefined"	"undefined"	"0"	"5"	"5"	"0"	"0"	"0"	"5"	"0"	"0"	"5"	"0"	"0"	"0"	"0"	"0"	"0"	"0"	"0"	"5"	"7"	"0"	"0"	"0"	"0"	"0"	"5"	"557"	"657"	"02/14/18 15:01:05"	"Executes Python code"	"yes"	""	"lineup_liveMEN_W.osexp"	"C:\Users\Laptop10\Desktop\Wednesday 1402"	"no"	"mono"	"no"	"24"	"no"	"black"	"no"	"Continue"	"yes"	"768"	"No"	"no"	"no"	"no"	"legacy"	"5"	"0"	"5"	"0"	"C:/Users/Laptop10/Desktop/Wednesday 1402/subject-75.csv"	"6"	"xpyriment"	"Jazzy James"	"3.1.4"	"0"	"1"	"1"	"4580"	"4580"	"2"	"legacy"	"1024"	"2"	"48000"	"-16"	"experiment"	"75"	"odd"	"legacy"	NA	NA	"149107"	NA	NA	NA	NA	NA	"1543"	"144507"	"1543"	NA	NA	"1547"	"1547"	"63512"	"63512"	"63494"	"139927"	"149107"	NA	NA	NA	NA	NA	"139926"	"lineup1"	"0"	"0"	"0"	"no"	"no"	"1366"
"63"	""	"undefined"	"undefined"	"undefined"	"undefined"	"white"	"no"	"xpyriment"	"legacy"	"legacy"	"0"	"no"	"relative"	"undefined"	"undefined"	"0"	"5"	"5"	"0"	"0"	"0"	"5"	"0"	"0"	"5"	"0"	"0"	"0"	"0"	"0"	"0"	"0"	"0"	"5"	"7"	"0"	"0"	"0"	"0"	"0"	"5"	"557"	"657"	"02/14/18 15:01:05"	"Executes Python code"	"yes"	""	"lineup_liveMEN_W.osexp"	"C:\Users\Laptop10\Desktop\Wednesday 1402"	"no"	"mono"	"no"	"24"	"no"	"black"	"no"	"Continue"	"yes"	"768"	"No"	"No"	"no"	"No"	"legacy"	"5"	"0"	"5"	"0"	"C:/Users/Laptop10/Desktop/Wednesday 1402/subject-75.csv"	"6"	"xpyriment"	"Jazzy James"	"3.1.4"	"0"	"1"	"1"	"4580"	"4580"	"2"	"legacy"	"1024"	"2"	"48000"	"-16"	"experiment"	"75"	"odd"	"legacy"	"153162"	NA	"149107"	"153162"	NA	"187993"	NA	NA	"1543"	"144507"	"1543"	NA	NA	"1547"	"1547"	"63512"	"63512"	"63494"	"139927"	"187993"	"149141"	NA	"156939"	NA	NA	"139926"	"lineup1"	"0"	"0"	"0"	"no"	"no"	"1366"
"64"	""	"undefined"	"undefined"	"undefined"	"undefined"	"white"	"no"	"xpyriment"	"legacy"	"legacy"	"0"	"no"	"relative"	"undefined"	"undefined"	"0"	"5"	"5"	"0"	"0"	"0"	"5"	"0"	"0"	"5"	"0"	"0"	"0"	"0"	"0"	"0"	"0"	"0"	"5"	"7"	"0"	"0"	"0"	"0"	"0"	"5"	"557"	"657"	"02/14/18 15:01:05"	"Executes Python code"	"yes"	""	"lineup_liveMEN_W.osexp"	"C:\Users\Laptop10\Desktop\Wednesday 1402"	"no"	"mono"	"no"	"24"	"no"	"black"	"no"	"Click to end"	"yes"	"768"	"No"	"No"	"no"	"No"	"legacy"	"5"	"0"	"5"	"0"	"C:/Users/Laptop10/Desktop/Wednesday 1402/subject-75.csv"	"6"	"xpyriment"	"Jazzy James"	"3.1.4"	"0"	"1"	"1"	"4580"	"4580"	"2"	"legacy"	"1024"	"2"	"48000"	"-16"	"experiment"	"75"	"odd"	"legacy"	"153162"	NA	"149107"	"153162"	NA	"187993"	NA	"188022"	"1543"	"144507"	"1543"	NA	NA	"1547"	"1547"	"63512"	"63512"	"63494"	"139927"	"190668"	"149141"	NA	"156939"	NA	NA	"139926"	"lineup1"	"0"	"0"	"0"	"no"	"no"	"1366"
"65"	""	"undefined"	"undefined"	"undefined"	"undefined"	"white"	"no"	"xpyriment"	"legacy"	"legacy"	"0"	"no"	"relative"	"undefined"	"undefined"	"0"	"0"	"0"	"0"	"0"	"0"	"0"	"0"	"0"	"0"	"0"	"0"	"0"	"0"	"0"	"0"	"0"	"0"	"0"	"2"	"0"	"0"	"0"	"0"	"0"	"0"	"633"	"95"	"02/14/18 15:26:59"	"Executes Python code"	"yes"	""	"lineup_liveMEN_W.osexp"	"C:\Users\Laptop10\Desktop\Wednesday 1402"	"no"	"mono"	"no"	"24"	"no"	"black"	"no"	"Continue"	"yes"	"768"	"Not sure"	"no"	"no"	"no"	"legacy"	"0"	"0"	"0"	"0"	"C:/Users/Laptop10/Desktop/Wednesday 1402/subject-84.csv"	"1"	"xpyriment"	"Jazzy James"	"3.1.4"	"0"	"1"	"1"	"12316"	"12316"	"2"	"legacy"	"1024"	"2"	"48000"	"-16"	"experiment"	"84"	"even"	"legacy"	NA	NA	"50345"	NA	NA	NA	NA	NA	"1584"	"46823"	"1584"	NA	NA	"1588"	"1588"	"34409"	"34409"	"34391"	"34507"	"50345"	NA	NA	NA	NA	NA	"34506"	"lineup1"	"0"	"0"	"0"	"no"	"no"	"1366"
"66"	""	"undefined"	"undefined"	"undefined"	"undefined"	"white"	"no"	"xpyriment"	"legacy"	"legacy"	"0"	"no"	"relative"	"undefined"	"undefined"	"0"	"1"	"1"	"0"	"0"	"0"	"1"	"0"	"0"	"1"	"0"	"0"	"0"	"0"	"0"	"0"	"0"	"0"	"1"	"3"	"0"	"0"	"0"	"0"	"0"	"1"	"162"	"709"	"02/14/18 15:26:59"	"Executes Python code"	"yes"	""	"lineup_liveMEN_W.osexp"	"C:\Users\Laptop10\Desktop\Wednesday 1402"	"no"	"mono"	"no"	"24"	"no"	"black"	"no"	"Continue"	"yes"	"768"	"No"	"no"	"no"	"no"	"legacy"	"1"	"0"	"1"	"0"	"C:/Users/Laptop10/Desktop/Wednesday 1402/subject-84.csv"	"2"	"xpyriment"	"Jazzy James"	"3.1.4"	"0"	"1"	"1"	"6013"	"6013"	"2"	"legacy"	"1024"	"2"	"48000"	"-16"	"experiment"	"84"	"even"	"legacy"	NA	NA	"58742"	NA	NA	NA	NA	NA	"1584"	"56488"	"1584"	NA	NA	"1588"	"1588"	"34409"	"34409"	"34391"	"50474"	"58742"	NA	NA	NA	NA	NA	"50473"	"lineup1"	"0"	"0"	"0"	"no"	"no"	"1366"
"67"	""	"undefined"	"undefined"	"undefined"	"undefined"	"white"	"no"	"xpyriment"	"legacy"	"legacy"	"0"	"no"	"relative"	"undefined"	"undefined"	"0"	"2"	"2"	"0"	"0"	"0"	"2"	"0"	"0"	"2"	"0"	"0"	"0"	"0"	"0"	"0"	"0"	"0"	"2"	"4"	"0"	"0"	"0"	"0"	"0"	"2"	"191"	"364"	"02/14/18 15:26:59"	"Executes Python code"	"yes"	""	"lineup_liveMEN_W.osexp"	"C:\Users\Laptop10\Desktop\Wednesday 1402"	"no"	"mono"	"no"	"24"	"no"	"black"	"no"	"Continue"	"yes"	"768"	"No"	"no"	"no"	"no"	"legacy"	"2"	"0"	"2"	"0"	"C:/Users/Laptop10/Desktop/Wednesday 1402/subject-84.csv"	"3"	"xpyriment"	"Jazzy James"	"3.1.4"	"0"	"1"	"1"	"6263"	"6263"	"2"	"legacy"	"1024"	"2"	"48000"	"-16"	"experiment"	"84"	"even"	"legacy"	NA	NA	"67205"	NA	NA	NA	NA	NA	"1584"	"65135"	"1584"	NA	NA	"1588"	"1588"	"34409"	"34409"	"34391"	"58872"	"67205"	NA	NA	NA	NA	NA	"58871"	"lineup1"	"0"	"0"	"0"	"no"	"no"	"1366"
"68"	""	"undefined"	"undefined"	"undefined"	"undefined"	"white"	"no"	"xpyriment"	"legacy"	"legacy"	"0"	"no"	"relative"	"undefined"	"undefined"	"0"	"3"	"3"	"0"	"0"	"0"	"3"	"0"	"0"	"3"	"0"	"0"	"0"	"0"	"0"	"0"	"0"	"0"	"3"	"5"	"0"	"0"	"0"	"0"	"0"	"3"	"345"	"657"	"02/14/18 15:26:59"	"Executes Python code"	"yes"	""	"lineup_liveMEN_W.osexp"	"C:\Users\Laptop10\Desktop\Wednesday 1402"	"no"	"mono"	"no"	"24"	"no"	"black"	"no"	"Continue"	"yes"	"768"	"No"	"no"	"no"	"no"	"legacy"	"3"	"0"	"3"	"0"	"C:/Users/Laptop10/Desktop/Wednesday 1402/subject-84.csv"	"4"	"xpyriment"	"Jazzy James"	"3.1.4"	"0"	"1"	"1"	"6017"	"6017"	"2"	"legacy"	"1024"	"2"	"48000"	"-16"	"experiment"	"84"	"even"	"legacy"	NA	NA	"75688"	NA	NA	NA	NA	NA	"1584"	"73352"	"1584"	NA	NA	"1588"	"1588"	"34409"	"34409"	"34391"	"67334"	"75688"	NA	NA	NA	NA	NA	"67333"	"lineup1"	"0"	"0"	"0"	"no"	"no"	"1366"
"69"	""	"undefined"	"undefined"	"undefined"	"undefined"	"white"	"no"	"xpyriment"	"legacy"	"legacy"	"0"	"no"	"relative"	"undefined"	"undefined"	"0"	"4"	"4"	"0"	"0"	"0"	"4"	"0"	"0"	"4"	"0"	"0"	"0"	"0"	"0"	"0"	"0"	"0"	"4"	"6"	"0"	"0"	"0"	"0"	"0"	"4"	"96"	"685"	"02/14/18 15:26:59"	"Executes Python code"	"yes"	""	"lineup_liveMEN_W.osexp"	"C:\Users\Laptop10\Desktop\Wednesday 1402"	"no"	"mono"	"no"	"24"	"no"	"black"	"no"	"Continue"	"yes"	"768"	"No"	"no"	"no"	"no"	"legacy"	"4"	"0"	"4"	"0"	"C:/Users/Laptop10/Desktop/Wednesday 1402/subject-84.csv"	"5"	"xpyriment"	"Jazzy James"	"3.1.4"	"0"	"1"	"1"	"8851"	"8851"	"2"	"legacy"	"1024"	"2"	"48000"	"-16"	"experiment"	"84"	"even"	"legacy"	NA	NA	"86911"	NA	NA	NA	NA	NA	"1584"	"84671"	"1584"	NA	NA	"1588"	"1588"	"34409"	"34409"	"34391"	"75819"	"86911"	NA	NA	NA	NA	NA	"75818"	"lineup1"	"0"	"0"	"0"	"no"	"no"	"1366"
"70"	""	"undefined"	"undefined"	"undefined"	"undefined"	"white"	"no"	"xpyriment"	"legacy"	"legacy"	"0"	"no"	"relative"	"undefined"	"undefined"	"0"	"5"	"5"	"0"	"0"	"0"	"5"	"0"	"0"	"5"	"0"	"0"	"0"	"0"	"0"	"0"	"0"	"0"	"5"	"7"	"0"	"0"	"0"	"0"	"0"	"5"	"64"	"675"	"02/14/18 15:26:59"	"Executes Python code"	"yes"	""	"lineup_liveMEN_W.osexp"	"C:\Users\Laptop10\Desktop\Wednesday 1402"	"no"	"mono"	"no"	"24"	"no"	"black"	"no"	"Continue"	"yes"	"768"	"No"	"no"	"no"	"no"	"legacy"	"5"	"0"	"5"	"0"	"C:/Users/Laptop10/Desktop/Wednesday 1402/subject-84.csv"	"6"	"xpyriment"	"Jazzy James"	"3.1.4"	"0"	"1"	"1"	"9470"	"9470"	"2"	"legacy"	"1024"	"2"	"48000"	"-16"	"experiment"	"84"	"even"	"legacy"	NA	NA	"98891"	NA	NA	NA	NA	NA	"1584"	"96511"	"1584"	NA	NA	"1588"	"1588"	"34409"	"34409"	"34391"	"87041"	"98891"	NA	NA	NA	NA	NA	"87040"	"lineup1"	"0"	"0"	"0"	"no"	"no"	"1366"
"71"	""	"undefined"	"undefined"	"undefined"	"undefined"	"white"	"no"	"xpyriment"	"legacy"	"legacy"	"0"	"no"	"relative"	"undefined"	"undefined"	"0"	"5"	"5"	"0"	"0"	"0"	"5"	"0"	"0"	"5"	"0"	"0"	"0"	"0"	"0"	"0"	"0"	"0"	"5"	"7"	"0"	"0"	"0"	"0"	"0"	"5"	"64"	"675"	"02/14/18 15:26:59"	"Executes Python code"	"yes"	""	"lineup_liveMEN_W.osexp"	"C:\Users\Laptop10\Desktop\Wednesday 1402"	"no"	"mono"	"no"	"24"	"no"	"black"	"no"	"Continue"	"yes"	"768"	"No"	"No"	"no"	"No"	"legacy"	"5"	"0"	"5"	"0"	"C:/Users/Laptop10/Desktop/Wednesday 1402/subject-84.csv"	"6"	"xpyriment"	"Jazzy James"	"3.1.4"	"0"	"1"	"1"	"9470"	"9470"	"2"	"legacy"	"1024"	"2"	"48000"	"-16"	"experiment"	"84"	"even"	"legacy"	"105769"	NA	"98891"	"105768"	NA	"123706"	NA	NA	"1584"	"96511"	"1584"	NA	NA	"1588"	"1588"	"34409"	"34409"	"34391"	"87041"	"123707"	"98925"	NA	"108613"	NA	NA	"87040"	"lineup1"	"0"	"0"	"0"	"no"	"no"	"1366"
"72"	""	"undefined"	"undefined"	"undefined"	"undefined"	"white"	"no"	"xpyriment"	"legacy"	"legacy"	"0"	"no"	"relative"	"undefined"	"undefined"	"0"	"5"	"5"	"0"	"0"	"0"	"5"	"0"	"0"	"5"	"0"	"0"	"0"	"0"	"0"	"0"	"0"	"0"	"5"	"7"	"0"	"0"	"0"	"0"	"0"	"5"	"64"	"675"	"02/14/18 15:26:59"	"Executes Python code"	"yes"	""	"lineup_liveMEN_W.osexp"	"C:\Users\Laptop10\Desktop\Wednesday 1402"	"no"	"mono"	"no"	"24"	"no"	"black"	"no"	"Click to end"	"yes"	"768"	"No"	"No"	"no"	"No"	"legacy"	"5"	"0"	"5"	"0"	"C:/Users/Laptop10/Desktop/Wednesday 1402/subject-84.csv"	"6"	"xpyriment"	"Jazzy James"	"3.1.4"	"0"	"1"	"1"	"9470"	"9470"	"2"	"legacy"	"1024"	"2"	"48000"	"-16"	"experiment"	"84"	"even"	"legacy"	"105769"	NA	"98891"	"105768"	NA	"123706"	NA	"123736"	"1584"	"96511"	"1584"	NA	NA	"1588"	"1588"	"34409"	"34409"	"34391"	"87041"	"126489"	"98925"	NA	"108613"	NA	NA	"87040"	"lineup1"	"0"	"0"	"0"	"no"	"no"	"1366"
