"_prepare","background","bidi","canvas_backend","clock_backend","color_backend","compensation","confidence_immediate","coordinates","count_TA_sequence_setting","count_TP_sequence_setting","count_admin_check","count_check_TA","count_check_TP","count_check_confidence_imm","count_check_identification","count_check_made_identification","count_check_multiple_identification","count_check_proceeding_identification","count_check_time_of_exposure","count_confidence_imm","count_end_of_experiment","count_experiment","count_gender_lineup_loop","count_gender_randomization_sequence","count_identification_task","count_instructions_after_multiple","count_instructions_after_proceed_identification","count_instructions_before_view","count_lineup_loop","count_lineup_procedure_loop","count_lineup_procedure_sequence","count_lineup_sequence","count_logger","count_made_identification","count_member_randomization_loop","count_member_randomization_sequence","count_multiple_identification","count_proceed_identification","count_repeat_lineup_sequence_identification","count_repeat_lineup_sequence_multiple","count_target_setting","count_target_setting_loop","count_target_setting_sequence","count_time_of_exposure","count_video","datetime","description","disable_garbage_collection","empty_column","experiment_file","experiment_path","font_bold","font_family","font_italic","font_size","font_underline","foreground","form_clicks","fullscreen","gender","height","identification","identification_made","identification_multiple","identification_proceed","keyboard_backend","lecture_time","live_row","live_row_target_setting_loop","logfile","member","member1","member2","member3","member4","member5","member6","mouse_backend","opensesame_codename","opensesame_version","repeat_cycle","round_decimals","sampler_backend","sound_buf_size","sound_channels","sound_freq","sound_sample_size","start","subject_nr","subject_parity","synth_backend","target","target1","target2","time_TA_sequence_setting","time_TP_sequence_setting","time_admin_check","time_check_TA","time_check_TP","time_check_confidence_imm","time_check_identification","time_check_made_identification","time_check_multiple_identification","time_check_proceeding_identification","time_check_time_of_exposure","time_confidence_imm","time_end_of_experiment","time_experiment","time_gender_lineup_loop","time_gender_randomization_sequence","time_identification_task","time_instructions_after_multiple","time_instructions_after_proceed_identification","time_instructions_before_view","time_lineup_loop","time_lineup_procedure_loop","time_lineup_procedure_sequence","time_lineup_sequence","time_logger","time_made_identification","time_member_randomization_loop","time_member_randomization_sequence","time_multiple_identification","time_proceed_identification","time_repeat_lineup_sequence_identification","time_repeat_lineup_sequence_multiple","time_target_setting","time_target_setting_loop","time_target_setting_sequence","time_time_of_exposure","time_video","title","transparent_variables","trial","uniform_coordinates","width"
"","white","no","xpyriment","legacy","legacy","0","NA","relative","NA","NA","NA","NA","NA","NA","NA","NA","NA","NA","0","NA","0","0","0","NA","NA","NA","NA","NA","NA","NA","NA","NA","1","NA","NA","NA","NA","NA","NA","NA","0","0","0","0","NA","11/10/18 10:47:20","Executes Python code","yes","","lineup_videoVIPER.osexp","C:/Users/standalone/Desktop/Sat 10 Nov HS 1.24","no","mono","no","24","no","black","no","yes","NA","768","NA","NA","NA","NA","legacy","no","0","0","C:/Users/standalone/Desktop/Sat 10 Nov HS 1.24/subject-136.csv","NA","NA","NA","NA","NA","NA","NA","xpyriment","Jazzy James","3.1.6","0","2","legacy","1024","2","48000","-16","experiment","136","even","legacy","NA","absent","present","NA","NA","NA","NA","NA","NA","NA","NA","NA","NA","NA","NA","NA","2811","NA","NA","NA","NA","NA","NA","NA","NA","NA","NA","2813","NA","NA","NA","NA","NA","NA","NA","2813","2812","2813","NA","NA","lineup1","no","NA","no","1366"
"","white","no","xpyriment","legacy","legacy","0","NA","relative","0","0","NA","0","0","NA","NA","NA","NA","NA","0","NA","0","0","0","0","NA","NA","NA","NA","NA","0","NA","NA","2","NA","0","0","NA","NA","NA","NA","0","0","0","0","NA","11/10/18 10:47:20","Executes Python code","yes","","lineup_videoVIPER.osexp","C:/Users/standalone/Desktop/Sat 10 Nov HS 1.24","no","mono","no","24","no","black","no","yes","male","768","NA","NA","NA","NA","legacy","no","0","0","C:/Users/standalone/Desktop/Sat 10 Nov HS 1.24/subject-136.csv","NA","2","3","4","7","1","5","xpyriment","Jazzy James","3.1.6","0","2","legacy","1024","2","48000","-16","experiment","136","even","legacy","[target1]","absent","present","2906","NA","NA","2906","NA","NA","NA","NA","NA","NA","NA","NA","NA","2811","2900","2904","NA","NA","NA","NA","NA","NA","NA","NA","2906","NA","2904","2906","NA","NA","NA","NA","2813","2812","2813","NA","NA","lineup1","no","NA","no","1366"
"","white","no","xpyriment","legacy","legacy","0","no","relative","0","0","0","0","0","0","0","0","0","0","0","0","0","0","0","0","0","0","0","0","0","0","0","0","4","0","0","0","0","0","0","0","0","0","0","0","0","11/10/18 10:47:20","Executes Python code","yes","","lineup_videoVIPER.osexp","C:/Users/standalone/Desktop/Sat 10 Nov HS 1.24","no","mono","no","24","no","black","no","yes","male","768","Not sure","no","no","no","legacy","no","0","0","C:/Users/standalone/Desktop/Sat 10 Nov HS 1.24/subject-136.csv","[member1]","2","3","4","7","1","5","xpyriment","Jazzy James","3.1.6","0","2","legacy","1024","2","48000","-16","experiment","136","even","legacy","[target1]","absent","present","2906","NA","NA","2906","NA","NA","54914","NA","NA","NA","NA","NA","NA","2811","2900","2904","49430","NA","NA","3310","2973","2947","2973","3310","54914","NA","2904","2906","NA","NA","NA","NA","2813","2812","2813","NA","28867","lineup1","no","1","no","1366"
"","white","no","xpyriment","legacy","legacy","0","no","relative","0","0","0","0","0","1","1","0","0","0","0","1","0","0","0","0","1","0","0","1","0","0","0","1","5","0","0","0","0","0","0","0","0","0","0","0","1","11/10/18 10:47:20","Executes Python code","yes","","lineup_videoVIPER.osexp","C:/Users/standalone/Desktop/Sat 10 Nov HS 1.24","no","mono","no","24","no","black","no","yes","male","768","Not sure","no","no","no","legacy","no","1","0","C:/Users/standalone/Desktop/Sat 10 Nov HS 1.24/subject-136.csv","[member2]","2","3","4","7","1","5","xpyriment","Jazzy James","3.1.6","0","2","legacy","1024","2","48000","-16","experiment","136","even","legacy","[target1]","absent","present","2906","NA","NA","2906","NA","NA","70184","NA","NA","NA","NA","NA","NA","2811","2900","2904","67895","NA","NA","3310","2973","2947","2973","55178","70184","NA","2904","2906","NA","NA","NA","NA","2813","2812","2813","NA","55178","lineup1","no","2","no","1366"
"","white","no","xpyriment","legacy","legacy","0","no","relative","0","0","0","0","0","2","2","0","0","0","0","2","0","0","0","0","2","0","0","2","0","0","0","2","6","0","0","0","0","0","0","0","0","0","0","0","2","11/10/18 10:47:20","Executes Python code","yes","","lineup_videoVIPER.osexp","C:/Users/standalone/Desktop/Sat 10 Nov HS 1.24","no","mono","no","24","no","black","no","yes","male","768","No","no","no","no","legacy","no","2","0","C:/Users/standalone/Desktop/Sat 10 Nov HS 1.24/subject-136.csv","[member3]","2","3","4","7","1","5","xpyriment","Jazzy James","3.1.6","0","2","legacy","1024","2","48000","-16","experiment","136","even","legacy","[target1]","absent","present","2906","NA","NA","2906","NA","NA","80910","NA","NA","NA","NA","NA","NA","2811","2900","2904","77812","NA","NA","3310","2973","2947","2973","70446","80910","NA","2904","2906","NA","NA","NA","NA","2813","2812","2813","NA","70446","lineup1","no","3","no","1366"
"","white","no","xpyriment","legacy","legacy","0","no","relative","0","0","0","0","0","3","3","0","0","0","0","3","0","0","0","0","3","0","0","3","0","0","0","3","7","0","0","0","0","0","0","0","0","0","0","0","3","11/10/18 10:47:20","Executes Python code","yes","","lineup_videoVIPER.osexp","C:/Users/standalone/Desktop/Sat 10 Nov HS 1.24","no","mono","no","24","no","black","no","yes","male","768","No","no","no","no","legacy","no","3","0","C:/Users/standalone/Desktop/Sat 10 Nov HS 1.24/subject-136.csv","[member4]","2","3","4","7","1","5","xpyriment","Jazzy James","3.1.6","0","2","legacy","1024","2","48000","-16","experiment","136","even","legacy","[target1]","absent","present","2906","NA","NA","2906","NA","NA","89779","NA","NA","NA","NA","NA","NA","2811","2900","2904","87486","NA","NA","3310","2973","2947","2973","81165","89780","NA","2904","2906","NA","NA","NA","NA","2813","2812","2813","NA","81165","lineup1","no","4","no","1366"
"","white","no","xpyriment","legacy","legacy","0","no","relative","0","0","0","0","0","4","4","0","0","0","0","4","0","0","0","0","4","0","0","4","0","0","0","4","8","0","0","0","0","0","0","0","0","0","0","0","4","11/10/18 10:47:20","Executes Python code","yes","","lineup_videoVIPER.osexp","C:/Users/standalone/Desktop/Sat 10 Nov HS 1.24","no","mono","no","24","no","black","no","yes","male","768","Not sure","no","no","no","legacy","no","4","0","C:/Users/standalone/Desktop/Sat 10 Nov HS 1.24/subject-136.csv","[member5]","2","3","4","7","1","5","xpyriment","Jazzy James","3.1.6","0","2","legacy","1024","2","48000","-16","experiment","136","even","legacy","[target1]","absent","present","2906","NA","NA","2906","NA","NA","107432","NA","NA","NA","NA","NA","NA","2811","2900","2904","103942","NA","NA","3310","2973","2947","2973","90041","107432","NA","2904","2906","NA","NA","NA","NA","2813","2812","2813","NA","90041","lineup1","no","5","no","1366"
"","white","no","xpyriment","legacy","legacy","0","no","relative","0","0","0","0","0","5","5","0","0","0","0","5","0","0","0","0","5","0","0","5","0","0","0","5","9","0","0","0","0","0","0","0","0","0","0","0","5","11/10/18 10:47:20","Executes Python code","yes","","lineup_videoVIPER.osexp","C:/Users/standalone/Desktop/Sat 10 Nov HS 1.24","no","mono","no","24","no","black","no","yes","male","768","No","no","no","no","legacy","no","5","0","C:/Users/standalone/Desktop/Sat 10 Nov HS 1.24/subject-136.csv","[member6]","2","3","4","7","1","5","xpyriment","Jazzy James","3.1.6","0","2","legacy","1024","2","48000","-16","experiment","136","even","legacy","[target1]","absent","present","2906","NA","NA","2906","NA","NA","121444","NA","NA","NA","NA","NA","NA","2811","2900","2904","118342","NA","NA","3310","2973","2947","2973","107681","121444","NA","2904","2906","NA","NA","NA","NA","2813","2812","2813","NA","107681","lineup1","no","6","no","1366"
"","white","no","xpyriment","legacy","legacy","0","no","relative","0","0","1","0","0","6","6","1","1","1","0","6","0","0","0","0","6","1","1","6","1","0","1","6","11","1","0","0","1","1","1","1","0","0","0","0","6","11/10/18 10:47:20","Executes Python code","yes","","lineup_videoVIPER.osexp","C:/Users/standalone/Desktop/Sat 10 Nov HS 1.24","no","mono","no","24","no","black","no","yes","male","768","Not sure","no","no","no","legacy","no","0","0","C:/Users/standalone/Desktop/Sat 10 Nov HS 1.24/subject-136.csv","[member1]","2","3","4","7","1","5","xpyriment","Jazzy James","3.1.6","0","2","legacy","1024","2","48000","-16","experiment","136","even","legacy","[target1]","absent","present","2906","NA","126520","2906","NA","NA","173966","126519","NA","141240","NA","NA","NA","2811","2900","2904","170902","NA","141240","153435","153209","2947","153209","153435","173966","121487","2904","2906","NA","130898","153180","NA","2813","2812","2813","NA","155226","lineup1","no","1","no","1366"
"","white","no","xpyriment","legacy","legacy","0","60","relative","0","0","1","0","0","7","7","1","1","1","0","7","0","0","0","0","7","1","1","7","1","0","1","7","12","1","0","0","1","1","1","1","0","0","0","0","7","11/10/18 10:47:20","Executes Python code","yes","","lineup_videoVIPER.osexp","C:/Users/standalone/Desktop/Sat 10 Nov HS 1.24","no","mono","no","24","no","black","no","yes","male","768","Yes","no","no","no","legacy","no","1","0","C:/Users/standalone/Desktop/Sat 10 Nov HS 1.24/subject-136.csv","[member2]","2","3","4","7","1","5","xpyriment","Jazzy James","3.1.6","0","2","legacy","1024","2","48000","-16","experiment","136","even","legacy","[target1]","absent","present","2906","NA","126520","2906","NA","191739","181191","126519","NA","141240","NA","181191","NA","2811","2900","2904","178124","NA","141240","153435","153209","2947","153209","174240","191739","121487","2904","2906","NA","130898","153180","NA","2813","2812","2813","NA","174240","lineup1","no","2","no","1366"
"","white","no","xpyriment","legacy","legacy","0","no","relative","0","0","1","0","0","8","8","1","1","1","0","8","0","0","0","0","8","1","1","8","1","0","1","8","13","1","0","0","1","1","1","1","0","0","0","0","8","11/10/18 10:47:20","Executes Python code","yes","","lineup_videoVIPER.osexp","C:/Users/standalone/Desktop/Sat 10 Nov HS 1.24","no","mono","no","24","no","black","no","yes","male","768","No","no","no","no","legacy","no","2","0","C:/Users/standalone/Desktop/Sat 10 Nov HS 1.24/subject-136.csv","[member3]","2","3","4","7","1","5","xpyriment","Jazzy James","3.1.6","0","2","legacy","1024","2","48000","-16","experiment","136","even","legacy","[target1]","absent","present","2906","NA","126520","2906","NA","191739","205401","126519","NA","141240","NA","181191","NA","2811","2900","2904","202701","NA","141240","153435","153209","2947","153209","191997","205401","121487","2904","2906","NA","130898","153180","NA","2813","2812","2813","NA","191997","lineup1","no","3","no","1366"
"","white","no","xpyriment","legacy","legacy","0","no","relative","0","0","1","0","0","9","9","1","1","1","0","9","0","0","0","0","9","1","1","9","1","0","1","9","14","1","0","0","1","1","1","1","0","0","0","0","9","11/10/18 10:47:20","Executes Python code","yes","","lineup_videoVIPER.osexp","C:/Users/standalone/Desktop/Sat 10 Nov HS 1.24","no","mono","no","24","no","black","no","yes","male","768","Not sure","no","no","no","legacy","no","3","0","C:/Users/standalone/Desktop/Sat 10 Nov HS 1.24/subject-136.csv","[member4]","2","3","4","7","1","5","xpyriment","Jazzy James","3.1.6","0","2","legacy","1024","2","48000","-16","experiment","136","even","legacy","[target1]","absent","present","2906","NA","126520","2906","NA","191739","217561","126519","NA","141240","NA","181191","NA","2811","2900","2904","214878","NA","141240","153435","153209","2947","153209","205670","217561","121487","2904","2906","NA","130898","153180","NA","2813","2812","2813","NA","205671","lineup1","no","4","no","1366"
"","white","no","xpyriment","legacy","legacy","0","60","relative","0","0","1","0","0","10","10","1","1","1","0","10","0","0","0","0","10","1","1","10","1","0","1","10","15","1","0","0","1","1","1","1","0","0","0","0","10","11/10/18 10:47:20","Executes Python code","yes","","lineup_videoVIPER.osexp","C:/Users/standalone/Desktop/Sat 10 Nov HS 1.24","no","mono","no","24","no","black","no","yes","male","768","Yes","no","no","no","legacy","no","4","0","C:/Users/standalone/Desktop/Sat 10 Nov HS 1.24/subject-136.csv","[member5]","2","3","4","7","1","5","xpyriment","Jazzy James","3.1.6","0","2","legacy","1024","2","48000","-16","experiment","136","even","legacy","[target1]","absent","present","2906","NA","126520","2906","NA","230690","227171","126519","NA","141240","NA","227171","NA","2811","2900","2904","224085","NA","141240","153435","153209","2947","153209","217813","230690","121487","2904","2906","NA","130898","153180","NA","2813","2812","2813","NA","217813","lineup1","no","5","no","1366"
"","white","no","xpyriment","legacy","legacy","0","no","relative","0","0","1","0","0","11","11","1","1","1","0","11","0","0","0","0","11","1","1","11","1","0","1","11","16","1","0","0","1","1","1","1","0","0","0","0","11","11/10/18 10:47:20","Executes Python code","yes","","lineup_videoVIPER.osexp","C:/Users/standalone/Desktop/Sat 10 Nov HS 1.24","no","mono","no","24","no","black","no","yes","male","768","No","no","no","no","legacy","no","5","0","C:/Users/standalone/Desktop/Sat 10 Nov HS 1.24/subject-136.csv","[member6]","2","3","4","7","1","5","xpyriment","Jazzy James","3.1.6","0","2","legacy","1024","2","48000","-16","experiment","136","even","legacy","[target1]","absent","present","2906","NA","126520","2906","NA","230690","240242","126519","NA","141240","NA","227171","NA","2811","2900","2904","236566","NA","141240","153435","153209","2947","153209","230952","240242","121487","2904","2906","NA","130898","153180","NA","2813","2812","2813","NA","230952","lineup1","no","6","no","1366"
"","white","no","xpyriment","legacy","legacy","0","no","relative","0","0","2","0","0","12","12","2","2","2","0","12","0","0","0","0","12","2","2","12","2","0","2","12","18","2","0","0","2","2","2","2","0","0","0","0","12","11/10/18 10:47:20","Executes Python code","yes","","lineup_videoVIPER.osexp","C:/Users/standalone/Desktop/Sat 10 Nov HS 1.24","no","mono","no","24","no","black","no","yes","male","768","No","no","no","no","legacy","no","0","0","C:/Users/standalone/Desktop/Sat 10 Nov HS 1.24/subject-136.csv","[member1]","2","3","4","7","1","5","xpyriment","Jazzy James","3.1.6","0","2","legacy","1024","2","48000","-16","experiment","136","even","legacy","[target1]","absent","present","2906","NA","126520","2906","NA","230690","261791","243773","248124","141240","NA","227171","NA","2811","2900","2904","259156","248124","141240","254315","254099","2947","254099","254315","261791","240290","2904","2906","243773","130898","153180","254071","2813","2812","2813","NA","255577","lineup1","no","1","no","1366"
"","white","no","xpyriment","legacy","legacy","0","60","relative","0","0","2","0","0","13","13","2","2","2","0","13","0","0","0","0","13","2","2","13","2","0","2","13","19","2","0","0","2","2","2","2","0","0","0","0","13","11/10/18 10:47:20","Executes Python code","yes","","lineup_videoVIPER.osexp","C:/Users/standalone/Desktop/Sat 10 Nov HS 1.24","no","mono","no","24","no","black","no","yes","male","768","Yes","no","no","no","legacy","no","1","0","C:/Users/standalone/Desktop/Sat 10 Nov HS 1.24/subject-136.csv","[member2]","2","3","4","7","1","5","xpyriment","Jazzy James","3.1.6","0","2","legacy","1024","2","48000","-16","experiment","136","even","legacy","[target1]","absent","present","2906","NA","126520","2906","NA","271424","267887","243773","248124","141240","NA","267887","NA","2811","2900","2904","265463","248124","141240","254315","254099","2947","254099","262044","271424","240290","2904","2906","243773","130898","153180","254071","2813","2812","2813","NA","262044","lineup1","no","2","no","1366"
"","white","no","xpyriment","legacy","legacy","0","no","relative","0","0","2","0","0","14","14","2","2","2","0","14","0","0","0","0","14","2","2","14","2","0","2","14","20","2","0","0","2","2","2","2","0","0","0","0","14","11/10/18 10:47:20","Executes Python code","yes","","lineup_videoVIPER.osexp","C:/Users/standalone/Desktop/Sat 10 Nov HS 1.24","no","mono","no","24","no","black","no","yes","male","768","No","no","no","no","legacy","no","2","0","C:/Users/standalone/Desktop/Sat 10 Nov HS 1.24/subject-136.csv","[member3]","2","3","4","7","1","5","xpyriment","Jazzy James","3.1.6","0","2","legacy","1024","2","48000","-16","experiment","136","even","legacy","[target1]","absent","present","2906","NA","126520","2906","NA","271424","274456","243773","248124","141240","NA","267887","NA","2811","2900","2904","272471","248124","141240","254315","254099","2947","254099","271671","274456","240290","2904","2906","243773","130898","153180","254071","2813","2812","2813","NA","271671","lineup1","no","3","no","1366"
"","white","no","xpyriment","legacy","legacy","0","no","relative","0","0","2","0","0","15","15","2","2","2","0","15","0","0","0","0","15","2","2","15","2","0","2","15","21","2","0","0","2","2","2","2","0","0","0","0","15","11/10/18 10:47:20","Executes Python code","yes","","lineup_videoVIPER.osexp","C:/Users/standalone/Desktop/Sat 10 Nov HS 1.24","no","mono","no","24","no","black","no","yes","male","768","No","no","no","no","legacy","no","3","0","C:/Users/standalone/Desktop/Sat 10 Nov HS 1.24/subject-136.csv","[member4]","2","3","4","7","1","5","xpyriment","Jazzy James","3.1.6","0","2","legacy","1024","2","48000","-16","experiment","136","even","legacy","[target1]","absent","present","2906","NA","126520","2906","NA","271424","277267","243773","248124","141240","NA","267887","NA","2811","2900","2904","275287","248124","141240","254315","254099","2947","254099","274722","277267","240290","2904","2906","243773","130898","153180","254071","2813","2812","2813","NA","274722","lineup1","no","4","no","1366"
"","white","no","xpyriment","legacy","legacy","0","no","relative","0","0","2","0","0","16","16","2","2","2","0","16","0","0","0","0","16","2","2","16","2","0","2","16","22","2","0","0","2","2","2","2","0","0","0","0","16","11/10/18 10:47:20","Executes Python code","yes","","lineup_videoVIPER.osexp","C:/Users/standalone/Desktop/Sat 10 Nov HS 1.24","no","mono","no","24","no","black","no","yes","male","768","No","no","no","no","legacy","no","4","0","C:/Users/standalone/Desktop/Sat 10 Nov HS 1.24/subject-136.csv","[member5]","2","3","4","7","1","5","xpyriment","Jazzy James","3.1.6","0","2","legacy","1024","2","48000","-16","experiment","136","even","legacy","[target1]","absent","present","2906","NA","126520","2906","NA","271424","281499","243773","248124","141240","NA","267887","NA","2811","2900","2904","278910","248124","141240","254315","254099","2947","254099","277532","281499","240290","2904","2906","243773","130898","153180","254071","2813","2812","2813","NA","277533","lineup1","no","5","no","1366"
"","white","no","xpyriment","legacy","legacy","0","no","relative","0","0","2","0","0","17","17","2","2","2","0","17","0","0","0","0","17","2","2","17","2","0","2","17","23","2","0","0","2","2","2","2","0","0","0","0","17","11/10/18 10:47:20","Executes Python code","yes","","lineup_videoVIPER.osexp","C:/Users/standalone/Desktop/Sat 10 Nov HS 1.24","no","mono","no","24","no","black","no","yes","male","768","No","no","no","no","legacy","no","5","0","C:/Users/standalone/Desktop/Sat 10 Nov HS 1.24/subject-136.csv","[member6]","2","3","4","7","1","5","xpyriment","Jazzy James","3.1.6","0","2","legacy","1024","2","48000","-16","experiment","136","even","legacy","[target1]","absent","present","2906","NA","126520","2906","NA","271424","284312","243773","248124","141240","NA","267887","NA","2811","2900","2904","282319","248124","141240","254315","254099","2947","254099","281759","284312","240290","2904","2906","243773","130898","153180","254071","2813","2812","2813","NA","281759","lineup1","no","6","no","1366"
"","white","no","xpyriment","legacy","legacy","0","no","relative","0","0","2","0","0","17","17","2","2","2","0","17","0","0","0","0","17","2","2","17","2","0","2","17","23","2","0","0","2","2","2","2","0","0","0","0","17","11/10/18 10:47:20","Executes Python code","yes","","lineup_videoVIPER.osexp","C:/Users/standalone/Desktop/Sat 10 Nov HS 1.24","no","mono","no","24","no","black","no","yes","male","768","No","Yes","One","No","legacy","no","5","0","C:/Users/standalone/Desktop/Sat 10 Nov HS 1.24/subject-136.csv","[member6]","2","3","4","7","1","5","xpyriment","Jazzy James","3.1.6","0","2","legacy","1024","2","48000","-16","experiment","136","even","legacy","[target1]","absent","present","2906","NA","291374","2906","NA","271424","284312","287852","291374","302339","NA","267887","NA","2811","2900","2904","282319","248124","141240","254315","254099","2947","254099","281759","302339","284360","2904","2906","287852","296341","153180","254071","2813","2812","2813","NA","281759","lineup1","no","6","no","1366"
"","white","no","xpyriment","legacy","legacy","0","no","relative","0","0","2","0","0","17","17","2","2","2","0","17","0","0","0","0","17","2","2","17","2","0","2","17","23","2","0","0","2","2","2","2","0","0","0","0","17","11/10/18 10:47:20","Executes Python code","yes","","lineup_videoVIPER.osexp","C:/Users/standalone/Desktop/Sat 10 Nov HS 1.24","no","mono","no","24","no","black","no","yes","male","768","No","Yes","One","No","legacy","no","5","0","C:/Users/standalone/Desktop/Sat 10 Nov HS 1.24/subject-136.csv","[member6]","2","3","4","7","1","5","xpyriment","Jazzy James","3.1.6","0","2","legacy","1024","2","48000","-16","experiment","136","even","legacy","[target1]","absent","present","2906","NA","302383","2906","NA","271424","284312","287852","291374","314646","NA","267887","NA","2811","2900","2904","282319","248124","141240","254315","254099","2947","254099","281759","314646","284360","2904","2906","287852","304665","153180","254071","2813","2812","2813","NA","281759","lineup1","no","6","no","1366"
"","white","no","xpyriment","legacy","legacy","0","no","relative","0","0","2","0","0","17","17","2","2","2","0","17","0","0","0","0","17","2","2","17","2","0","2","17","23","2","0","0","2","2","2","2","0","0","0","0","17","11/10/18 10:47:20","Executes Python code","yes","","lineup_videoVIPER.osexp","C:/Users/standalone/Desktop/Sat 10 Nov HS 1.24","no","mono","no","24","no","black","no","yes","male","768","No","Yes","One","No","legacy","no","5","0","C:/Users/standalone/Desktop/Sat 10 Nov HS 1.24/subject-136.csv","[member6]","2","3","4","7","1","5","xpyriment","Jazzy James","3.1.6","0","2","legacy","1024","2","48000","-16","experiment","136","even","legacy","[target1]","absent","present","2906","NA","302383","2906","NA","271424","284312","287852","291374","314646","NA","267887","NA","2811","2900","2904","282319","248124","141240","254315","254099","2947","254099","281759","314690","284360","2904","2906","287852","304665","153180","254071","2813","2812","2813","NA","281759","lineup1","no","6","no","1366"
"","white","no","xpyriment","legacy","legacy","0","no","relative","1","1","2","1","1","17","17","2","2","2","0","17","0","0","0","1","17","2","2","17","2","1","2","17","24","2","1","1","2","2","2","2","0","0","0","0","17","11/10/18 10:47:20","Executes Python code","yes","","lineup_videoVIPER.osexp","C:/Users/standalone/Desktop/Sat 10 Nov HS 1.24","no","mono","no","24","no","black","no","yes","female","768","No","Yes","One","No","legacy","no","0","0","C:/Users/standalone/Desktop/Sat 10 Nov HS 1.24/subject-136.csv","[member6]","1","4","3","5","6","2","xpyriment","Jazzy James","3.1.6","0","2","legacy","1024","2","48000","-16","experiment","136","even","legacy","[target2]","absent","present","2906","314746","302383","2906","314746","271424","284312","287852","291374","314646","NA","267887","NA","2811","2900","314744","282319","248124","141240","254315","254099","2947","254099","281759","314747","284360","314744","314746","287852","304665","153180","254071","2813","2812","2813","NA","281759","lineup1","no","6","no","1366"
"","white","no","xpyriment","legacy","legacy","0","no","relative","1","1","3","1","1","18","18","3","3","3","0","18","0","0","0","1","18","3","3","18","3","1","3","18","26","3","1","1","3","3","3","3","0","0","0","0","18","11/10/18 10:47:20","Executes Python code","yes","","lineup_videoVIPER.osexp","C:/Users/standalone/Desktop/Sat 10 Nov HS 1.24","no","mono","no","24","no","black","no","yes","female","768","Not sure","no","no","no","legacy","no","0","0","C:/Users/standalone/Desktop/Sat 10 Nov HS 1.24/subject-136.csv","[member1]","1","4","3","5","6","2","xpyriment","Jazzy James","3.1.6","0","2","legacy","1024","2","48000","-16","experiment","136","even","legacy","[target2]","absent","present","2906","314746","302383","2906","314746","271424","327390","287852","291374","314646","NA","267887","NA","2811","2900","314744","325080","248124","141240","315040","314808","314781","314808","315040","327390","284360","314744","314746","287852","304665","153180","254071","2813","2812","2813","NA","317377","lineup1","no","1","no","1366"
"","white","no","xpyriment","legacy","legacy","0","no","relative","1","1","3","1","1","19","19","3","3","3","0","19","0","0","0","1","19","3","3","19","3","1","3","19","27","3","1","1","3","3","3","3","0","0","0","0","19","11/10/18 10:47:20","Executes Python code","yes","","lineup_videoVIPER.osexp","C:/Users/standalone/Desktop/Sat 10 Nov HS 1.24","no","mono","no","24","no","black","no","yes","female","768","No","no","no","no","legacy","no","1","0","C:/Users/standalone/Desktop/Sat 10 Nov HS 1.24/subject-136.csv","[member2]","1","4","3","5","6","2","xpyriment","Jazzy James","3.1.6","0","2","legacy","1024","2","48000","-16","experiment","136","even","legacy","[target2]","absent","present","2906","314746","302383","2906","314746","271424","334047","287852","291374","314646","NA","267887","NA","2811","2900","314744","331408","248124","141240","315040","314808","314781","314808","327643","334047","284360","314744","314746","287852","304665","153180","254071","2813","2812","2813","NA","327643","lineup1","no","2","no","1366"
"","white","no","xpyriment","legacy","legacy","0","no","relative","1","1","3","1","1","20","20","3","3","3","0","20","0","0","0","1","20","3","3","20","3","1","3","20","28","3","1","1","3","3","3","3","0","0","0","0","20","11/10/18 10:47:20","Executes Python code","yes","","lineup_videoVIPER.osexp","C:/Users/standalone/Desktop/Sat 10 Nov HS 1.24","no","mono","no","24","no","black","no","yes","female","768","No","no","no","no","legacy","no","2","0","C:/Users/standalone/Desktop/Sat 10 Nov HS 1.24/subject-136.csv","[member3]","1","4","3","5","6","2","xpyriment","Jazzy James","3.1.6","0","2","legacy","1024","2","48000","-16","experiment","136","even","legacy","[target2]","absent","present","2906","314746","302383","2906","314746","271424","340176","287852","291374","314646","NA","267887","NA","2811","2900","314744","338117","248124","141240","315040","314808","314781","314808","334307","340176","284360","314744","314746","287852","304665","153180","254071","2813","2812","2813","NA","334307","lineup1","no","3","no","1366"
"","white","no","xpyriment","legacy","legacy","0","no","relative","1","1","3","1","1","21","21","3","3","3","0","21","0","0","0","1","21","3","3","21","3","1","3","21","29","3","1","1","3","3","3","3","0","0","0","0","21","11/10/18 10:47:20","Executes Python code","yes","","lineup_videoVIPER.osexp","C:/Users/standalone/Desktop/Sat 10 Nov HS 1.24","no","mono","no","24","no","black","no","yes","female","768","Not sure","no","no","no","legacy","no","3","0","C:/Users/standalone/Desktop/Sat 10 Nov HS 1.24/subject-136.csv","[member4]","1","4","3","5","6","2","xpyriment","Jazzy James","3.1.6","0","2","legacy","1024","2","48000","-16","experiment","136","even","legacy","[target2]","absent","present","2906","314746","302383","2906","314746","271424","348100","287852","291374","314646","NA","267887","NA","2811","2900","314744","346016","248124","141240","315040","314808","314781","314808","340433","348100","284360","314744","314746","287852","304665","153180","254071","2813","2812","2813","NA","340434","lineup1","no","4","no","1366"
"","white","no","xpyriment","legacy","legacy","0","no","relative","1","1","3","1","1","22","22","3","3","3","0","22","0","0","0","1","22","3","3","22","3","1","3","22","30","3","1","1","3","3","3","3","0","0","0","0","22","11/10/18 10:47:20","Executes Python code","yes","","lineup_videoVIPER.osexp","C:/Users/standalone/Desktop/Sat 10 Nov HS 1.24","no","mono","no","24","no","black","no","yes","female","768","Not sure","no","no","no","legacy","no","4","0","C:/Users/standalone/Desktop/Sat 10 Nov HS 1.24/subject-136.csv","[member5]","1","4","3","5","6","2","xpyriment","Jazzy James","3.1.6","0","2","legacy","1024","2","48000","-16","experiment","136","even","legacy","[target2]","absent","present","2906","314746","302383","2906","314746","271424","357535","287852","291374","314646","NA","267887","NA","2811","2900","314744","355047","248124","141240","315040","314808","314781","314808","348361","357535","284360","314744","314746","287852","304665","153180","254071","2813","2812","2813","NA","348362","lineup1","no","5","no","1366"
"","white","no","xpyriment","legacy","legacy","0","no","relative","1","1","3","1","1","23","23","3","3","3","0","23","0","0","0","1","23","3","3","23","3","1","3","23","31","3","1","1","3","3","3","3","0","0","0","0","23","11/10/18 10:47:20","Executes Python code","yes","","lineup_videoVIPER.osexp","C:/Users/standalone/Desktop/Sat 10 Nov HS 1.24","no","mono","no","24","no","black","no","yes","female","768","No","no","no","no","legacy","no","5","0","C:/Users/standalone/Desktop/Sat 10 Nov HS 1.24/subject-136.csv","[member6]","1","4","3","5","6","2","xpyriment","Jazzy James","3.1.6","0","2","legacy","1024","2","48000","-16","experiment","136","even","legacy","[target2]","absent","present","2906","314746","302383","2906","314746","271424","363646","287852","291374","314646","NA","267887","NA","2811","2900","314744","361404","248124","141240","315040","314808","314781","314808","357785","363647","284360","314744","314746","287852","304665","153180","254071","2813","2812","2813","NA","357786","lineup1","no","6","no","1366"
"","white","no","xpyriment","legacy","legacy","0","no","relative","1","1","4","1","1","24","24","4","4","4","0","24","0","0","0","1","24","4","4","24","4","1","4","24","33","4","1","1","4","4","4","4","0","0","0","0","24","11/10/18 10:47:20","Executes Python code","yes","","lineup_videoVIPER.osexp","C:/Users/standalone/Desktop/Sat 10 Nov HS 1.24","no","mono","no","24","no","black","no","yes","female","768","No","no","no","no","legacy","no","0","0","C:/Users/standalone/Desktop/Sat 10 Nov HS 1.24/subject-136.csv","[member1]","1","4","3","5","6","2","xpyriment","Jazzy James","3.1.6","0","2","legacy","1024","2","48000","-16","experiment","136","even","legacy","[target2]","absent","present","2906","314746","366889","2906","314746","271424","390776","366889","291374","383180","NA","267887","NA","2811","2900","314744","388776","248124","383180","386310","386084","314781","386084","386310","390776","363690","314744","314746","287852","376854","386055","254071","2813","2812","2813","NA","387389","lineup1","no","1","no","1366"
"","white","no","xpyriment","legacy","legacy","0","no","relative","1","1","4","1","1","25","25","4","4","4","0","25","0","0","0","1","25","4","4","25","4","1","4","25","34","4","1","1","4","4","4","4","0","0","0","0","25","11/10/18 10:47:20","Executes Python code","yes","","lineup_videoVIPER.osexp","C:/Users/standalone/Desktop/Sat 10 Nov HS 1.24","no","mono","no","24","no","black","no","yes","female","768","No","no","no","no","legacy","no","1","0","C:/Users/standalone/Desktop/Sat 10 Nov HS 1.24/subject-136.csv","[member2]","1","4","3","5","6","2","xpyriment","Jazzy James","3.1.6","0","2","legacy","1024","2","48000","-16","experiment","136","even","legacy","[target2]","absent","present","2906","314746","366889","2906","314746","271424","394211","366889","291374","383180","NA","267887","NA","2811","2900","314744","392228","248124","383180","386310","386084","314781","386084","391019","394211","363690","314744","314746","287852","376854","386055","254071","2813","2812","2813","NA","391020","lineup1","no","2","no","1366"
"","white","no","xpyriment","legacy","legacy","0","no","relative","1","1","4","1","1","26","26","4","4","4","0","26","0","0","0","1","26","4","4","26","4","1","4","26","35","4","1","1","4","4","4","4","0","0","0","0","26","11/10/18 10:47:20","Executes Python code","yes","","lineup_videoVIPER.osexp","C:/Users/standalone/Desktop/Sat 10 Nov HS 1.24","no","mono","no","24","no","black","no","yes","female","768","No","no","no","no","legacy","no","2","0","C:/Users/standalone/Desktop/Sat 10 Nov HS 1.24/subject-136.csv","[member3]","1","4","3","5","6","2","xpyriment","Jazzy James","3.1.6","0","2","legacy","1024","2","48000","-16","experiment","136","even","legacy","[target2]","absent","present","2906","314746","366889","2906","314746","271424","397592","366889","291374","383180","NA","267887","NA","2811","2900","314744","395208","248124","383180","386310","386084","314781","386084","394466","397592","363690","314744","314746","287852","376854","386055","254071","2813","2812","2813","NA","394466","lineup1","no","3","no","1366"
"","white","no","xpyriment","legacy","legacy","0","no","relative","1","1","4","1","1","27","27","4","4","4","0","27","0","0","0","1","27","4","4","27","4","1","4","27","36","4","1","1","4","4","4","4","0","0","0","0","27","11/10/18 10:47:20","Executes Python code","yes","","lineup_videoVIPER.osexp","C:/Users/standalone/Desktop/Sat 10 Nov HS 1.24","no","mono","no","24","no","black","no","yes","female","768","Not sure","no","no","no","legacy","no","3","0","C:/Users/standalone/Desktop/Sat 10 Nov HS 1.24/subject-136.csv","[member4]","1","4","3","5","6","2","xpyriment","Jazzy James","3.1.6","0","2","legacy","1024","2","48000","-16","experiment","136","even","legacy","[target2]","absent","present","2906","314746","366889","2906","314746","271424","402232","366889","291374","383180","NA","267887","NA","2811","2900","314744","399054","248124","383180","386310","386084","314781","386084","397857","402232","363690","314744","314746","287852","376854","386055","254071","2813","2812","2813","NA","397857","lineup1","no","4","no","1366"
"","white","no","xpyriment","legacy","legacy","0","60","relative","1","1","4","1","1","28","28","4","4","4","0","28","0","0","0","1","28","4","4","28","4","1","4","28","37","4","1","1","4","4","4","4","0","0","0","0","28","11/10/18 10:47:20","Executes Python code","yes","","lineup_videoVIPER.osexp","C:/Users/standalone/Desktop/Sat 10 Nov HS 1.24","no","mono","no","24","no","black","no","yes","female","768","Yes","no","no","no","legacy","no","4","0","C:/Users/standalone/Desktop/Sat 10 Nov HS 1.24/subject-136.csv","[member5]","1","4","3","5","6","2","xpyriment","Jazzy James","3.1.6","0","2","legacy","1024","2","48000","-16","experiment","136","even","legacy","[target2]","absent","present","2906","314746","366889","2906","314746","409022","405500","366889","291374","383180","NA","405500","NA","2811","2900","314744","403311","248124","383180","386310","386084","314781","386084","402507","409022","363690","314744","314746","287852","376854","386055","254071","2813","2812","2813","NA","402507","lineup1","no","5","no","1366"
"","white","no","xpyriment","legacy","legacy","0","no","relative","1","1","4","1","1","29","29","4","4","4","0","29","0","0","0","1","29","4","4","29","4","1","4","29","38","4","1","1","4","4","4","4","0","0","0","0","29","11/10/18 10:47:20","Executes Python code","yes","","lineup_videoVIPER.osexp","C:/Users/standalone/Desktop/Sat 10 Nov HS 1.24","no","mono","no","24","no","black","no","yes","female","768","No","no","no","no","legacy","no","5","0","C:/Users/standalone/Desktop/Sat 10 Nov HS 1.24/subject-136.csv","[member6]","1","4","3","5","6","2","xpyriment","Jazzy James","3.1.6","0","2","legacy","1024","2","48000","-16","experiment","136","even","legacy","[target2]","absent","present","2906","314746","366889","2906","314746","409022","412850","366889","291374","383180","NA","405500","NA","2811","2900","314744","410069","248124","383180","386310","386084","314781","386084","409275","412851","363690","314744","314746","287852","376854","386055","254071","2813","2812","2813","NA","409275","lineup1","no","6","no","1366"
"","white","no","xpyriment","legacy","legacy","0","no","relative","1","1","4","1","1","29","29","4","4","4","0","29","0","0","0","1","29","4","4","29","4","1","4","29","38","4","1","1","4","4","4","4","0","0","0","0","29","11/10/18 10:47:20","Executes Python code","yes","","lineup_videoVIPER.osexp","C:/Users/standalone/Desktop/Sat 10 Nov HS 1.24","no","mono","no","24","no","black","no","yes","female","768","No","Yes","One","No","legacy","no","5","0","C:/Users/standalone/Desktop/Sat 10 Nov HS 1.24/subject-136.csv","[member6]","1","4","3","5","6","2","xpyriment","Jazzy James","3.1.6","0","2","legacy","1024","2","48000","-16","experiment","136","even","legacy","[target2]","absent","present","2906","314746","418142","2906","314746","409022","412850","415649","418142","424967","NA","405500","NA","2811","2900","314744","410069","248124","383180","386310","386084","314781","386084","409275","424967","412909","314744","314746","415649","420636","386055","254071","2813","2812","2813","NA","409275","lineup1","no","6","no","1366"
"","white","no","xpyriment","legacy","legacy","0","no","relative","1","1","4","1","1","29","29","4","4","4","0","29","0","0","0","1","29","4","4","29","4","1","4","29","38","4","1","1","4","4","4","4","0","0","0","0","29","11/10/18 10:47:20","Executes Python code","yes","","lineup_videoVIPER.osexp","C:/Users/standalone/Desktop/Sat 10 Nov HS 1.24","no","mono","no","24","no","black","no","yes","female","768","No","Yes","One","No","legacy","no","5","0","C:/Users/standalone/Desktop/Sat 10 Nov HS 1.24/subject-136.csv","[member6]","1","4","3","5","6","2","xpyriment","Jazzy James","3.1.6","0","2","legacy","1024","2","48000","-16","experiment","136","even","legacy","[target2]","absent","present","2906","314746","418142","2906","314746","409022","412850","415649","418142","424967","NA","405500","NA","2811","2900","314744","410069","248124","383180","386310","386084","314781","386084","409275","425007","412909","314744","314746","415649","420636","386055","254071","2813","2812","2813","NA","409275","lineup1","no","6","no","1366"
"","white","no","xpyriment","legacy","legacy","0","no","relative","1","1","4","1","1","29","29","4","4","4","0","29","0","0","0","1","29","4","4","29","4","1","4","29","38","4","1","1","4","4","4","4","0","0","0","0","29","11/10/18 10:47:20","Executes Python code","yes","","lineup_videoVIPER.osexp","C:/Users/standalone/Desktop/Sat 10 Nov HS 1.24","no","mono","no","24","no","black","no","yes","female","768","No","Yes","One","No","legacy","10am","5","0","C:/Users/standalone/Desktop/Sat 10 Nov HS 1.24/subject-136.csv","[member6]","1","4","3","5","6","2","xpyriment","Jazzy James","3.1.6","0","2","legacy","1024","2","48000","-16","experiment","136","even","legacy","[target2]","absent","present","2906","314746","418142","2906","314746","409022","412850","415649","418142","424967","431038","405500","431038","2811","2900","314744","410069","248124","383180","386310","386084","314781","386084","409275","433076","412909","314744","314746","415649","420636","386055","254071","2813","2812","2813","425052","409275","lineup1","no","6","no","1366"
