"_prepare","background","bidi","canvas_backend","clock_backend","color_backend","compensation","confidence_immediate","coordinates","count_TA_sequence_setting","count_TP_sequence_setting","count_admin_check","count_check_TA","count_check_TP","count_check_confidence_imm","count_check_identification","count_check_made_identification","count_check_multiple_identification","count_check_proceeding_identification","count_check_time_of_exposure","count_confidence_imm","count_end_of_experiment","count_experiment","count_gender_lineup_loop","count_gender_randomization_sequence","count_identification_task","count_instructions_after_multiple","count_instructions_after_proceed_identification","count_instructions_before_view","count_lineup_loop","count_lineup_procedure_loop","count_lineup_procedure_sequence","count_lineup_sequence","count_logger","count_made_identification","count_member_randomization_loop","count_member_randomization_sequence","count_multiple_identification","count_proceed_identification","count_repeat_lineup_sequence_identification","count_repeat_lineup_sequence_multiple","count_target_setting","count_target_setting_loop","count_target_setting_sequence","count_time_of_exposure","count_video","datetime","description","disable_garbage_collection","empty_column","experiment_file","experiment_path","font_bold","font_family","font_italic","font_size","font_underline","foreground","form_clicks","fullscreen","gender","height","identification","identification_made","identification_multiple","identification_proceed","keyboard_backend","lecture_time","live_row","live_row_target_setting_loop","logfile","member","member1","member2","member3","member4","member5","member6","mouse_backend","opensesame_codename","opensesame_version","repeat_cycle","round_decimals","sampler_backend","sound_buf_size","sound_channels","sound_freq","sound_sample_size","start","subject_nr","subject_parity","synth_backend","target","target1","target2","time_TA_sequence_setting","time_TP_sequence_setting","time_admin_check","time_check_TA","time_check_TP","time_check_confidence_imm","time_check_identification","time_check_made_identification","time_check_multiple_identification","time_check_proceeding_identification","time_check_time_of_exposure","time_confidence_imm","time_end_of_experiment","time_experiment","time_gender_lineup_loop","time_gender_randomization_sequence","time_identification_task","time_instructions_after_multiple","time_instructions_after_proceed_identification","time_instructions_before_view","time_lineup_loop","time_lineup_procedure_loop","time_lineup_procedure_sequence","time_lineup_sequence","time_logger","time_made_identification","time_member_randomization_loop","time_member_randomization_sequence","time_multiple_identification","time_proceed_identification","time_repeat_lineup_sequence_identification","time_repeat_lineup_sequence_multiple","time_target_setting","time_target_setting_loop","time_target_setting_sequence","time_time_of_exposure","time_video","title","transparent_variables","trial","uniform_coordinates","width"
"","white","no","xpyriment","legacy","legacy","0","NA","relative","NA","NA","NA","NA","NA","NA","NA","NA","NA","NA","0","NA","0","0","0","NA","NA","NA","NA","NA","NA","NA","NA","NA","1","NA","NA","NA","NA","NA","NA","NA","0","0","0","0","NA","11/10/18 12:48:23","Executes Python code","yes","","lineup_videoVIPER.osexp","C:/Users/standalone/Desktop/Sat 10 Nov HS 1.24","no","mono","no","24","no","black","no","yes","NA","768","NA","NA","NA","NA","legacy","no","0","0","C:/Users/standalone/Desktop/Sat 10 Nov HS 1.24/subject-156.csv","NA","NA","NA","NA","NA","NA","NA","xpyriment","Jazzy James","3.1.6","0","2","legacy","1024","2","48000","-16","experiment","156","even","legacy","NA","absent","present","NA","NA","NA","NA","NA","NA","NA","NA","NA","NA","NA","NA","NA","3425","NA","NA","NA","NA","NA","NA","NA","NA","NA","NA","3427","NA","NA","NA","NA","NA","NA","NA","3427","3425","3427","NA","NA","lineup1","no","NA","no","1366"
"","white","no","xpyriment","legacy","legacy","0","NA","relative","0","0","NA","0","0","NA","NA","NA","NA","NA","0","NA","0","0","0","0","NA","NA","NA","NA","NA","0","NA","NA","2","NA","0","0","NA","NA","NA","NA","0","0","0","0","NA","11/10/18 12:48:23","Executes Python code","yes","","lineup_videoVIPER.osexp","C:/Users/standalone/Desktop/Sat 10 Nov HS 1.24","no","mono","no","24","no","black","no","yes","female","768","NA","NA","NA","NA","legacy","no","0","0","C:/Users/standalone/Desktop/Sat 10 Nov HS 1.24/subject-156.csv","NA","4","5","6","3","2","1","xpyriment","Jazzy James","3.1.6","0","2","legacy","1024","2","48000","-16","experiment","156","even","legacy","[target2]","absent","present","NA","3497","NA","NA","3497","NA","NA","NA","NA","NA","NA","NA","NA","3425","3492","3495","NA","NA","NA","NA","NA","NA","NA","NA","3498","NA","3495","3497","NA","NA","NA","NA","3427","3425","3427","NA","NA","lineup1","no","NA","no","1366"
"","white","no","xpyriment","legacy","legacy","0","no","relative","0","0","0","0","0","0","0","0","0","0","0","0","0","0","0","0","0","0","0","0","0","0","0","0","4","0","0","0","0","0","0","0","0","0","0","0","0","11/10/18 12:48:23","Executes Python code","yes","","lineup_videoVIPER.osexp","C:/Users/standalone/Desktop/Sat 10 Nov HS 1.24","no","mono","no","24","no","black","no","yes","female","768","No","no","no","no","legacy","no","0","0","C:/Users/standalone/Desktop/Sat 10 Nov HS 1.24/subject-156.csv","[member1]","4","5","6","3","2","1","xpyriment","Jazzy James","3.1.6","0","2","legacy","1024","2","48000","-16","experiment","156","even","legacy","[target2]","absent","present","NA","3497","NA","NA","3497","NA","35859","NA","NA","NA","NA","NA","NA","3425","3492","3495","31568","NA","NA","3892","3567","3541","3567","3892","35859","NA","3495","3497","NA","NA","NA","NA","3427","3425","3427","NA","7363","lineup1","no","1","no","1366"
"","white","no","xpyriment","legacy","legacy","0","no","relative","0","0","0","0","0","1","1","0","0","0","0","1","0","0","0","0","1","0","0","1","0","0","0","1","5","0","0","0","0","0","0","0","0","0","0","0","1","11/10/18 12:48:23","Executes Python code","yes","","lineup_videoVIPER.osexp","C:/Users/standalone/Desktop/Sat 10 Nov HS 1.24","no","mono","no","24","no","black","no","yes","female","768","No","no","no","no","legacy","no","1","0","C:/Users/standalone/Desktop/Sat 10 Nov HS 1.24/subject-156.csv","[member2]","4","5","6","3","2","1","xpyriment","Jazzy James","3.1.6","0","2","legacy","1024","2","48000","-16","experiment","156","even","legacy","[target2]","absent","present","NA","3497","NA","NA","3497","NA","51963","NA","NA","NA","NA","NA","NA","3425","3492","3495","47883","NA","NA","3892","3567","3541","3567","36111","51963","NA","3495","3497","NA","NA","NA","NA","3427","3425","3427","NA","36111","lineup1","no","2","no","1366"
"","white","no","xpyriment","legacy","legacy","0","no","relative","0","0","0","0","0","2","2","0","0","0","0","2","0","0","0","0","2","0","0","2","0","0","0","2","6","0","0","0","0","0","0","0","0","0","0","0","2","11/10/18 12:48:23","Executes Python code","yes","","lineup_videoVIPER.osexp","C:/Users/standalone/Desktop/Sat 10 Nov HS 1.24","no","mono","no","24","no","black","no","yes","female","768","Not sure","no","no","no","legacy","no","2","0","C:/Users/standalone/Desktop/Sat 10 Nov HS 1.24/subject-156.csv","[member3]","4","5","6","3","2","1","xpyriment","Jazzy James","3.1.6","0","2","legacy","1024","2","48000","-16","experiment","156","even","legacy","[target2]","absent","present","NA","3497","NA","NA","3497","NA","71291","NA","NA","NA","NA","NA","NA","3425","3492","3495","68440","NA","NA","3892","3567","3541","3567","52226","71291","NA","3495","3497","NA","NA","NA","NA","3427","3425","3427","NA","52226","lineup1","no","3","no","1366"
"","white","no","xpyriment","legacy","legacy","0","no","relative","0","0","0","0","0","3","3","0","0","0","0","3","0","0","0","0","3","0","0","3","0","0","0","3","7","0","0","0","0","0","0","0","0","0","0","0","3","11/10/18 12:48:23","Executes Python code","yes","","lineup_videoVIPER.osexp","C:/Users/standalone/Desktop/Sat 10 Nov HS 1.24","no","mono","no","24","no","black","no","yes","female","768","No","no","no","no","legacy","no","3","0","C:/Users/standalone/Desktop/Sat 10 Nov HS 1.24/subject-156.csv","[member4]","4","5","6","3","2","1","xpyriment","Jazzy James","3.1.6","0","2","legacy","1024","2","48000","-16","experiment","156","even","legacy","[target2]","absent","present","NA","3497","NA","NA","3497","NA","81370","NA","NA","NA","NA","NA","NA","3425","3492","3495","78083","NA","NA","3892","3567","3541","3567","71546","81370","NA","3495","3497","NA","NA","NA","NA","3427","3425","3427","NA","71546","lineup1","no","4","no","1366"
"","white","no","xpyriment","legacy","legacy","0","no","relative","0","0","0","0","0","4","4","0","0","0","0","4","0","0","0","0","4","0","0","4","0","0","0","4","8","0","0","0","0","0","0","0","0","0","0","0","4","11/10/18 12:48:23","Executes Python code","yes","","lineup_videoVIPER.osexp","C:/Users/standalone/Desktop/Sat 10 Nov HS 1.24","no","mono","no","24","no","black","no","yes","female","768","No","no","no","no","legacy","no","4","0","C:/Users/standalone/Desktop/Sat 10 Nov HS 1.24/subject-156.csv","[member5]","4","5","6","3","2","1","xpyriment","Jazzy James","3.1.6","0","2","legacy","1024","2","48000","-16","experiment","156","even","legacy","[target2]","absent","present","NA","3497","NA","NA","3497","NA","96180","NA","NA","NA","NA","NA","NA","3425","3492","3495","89505","NA","NA","3892","3567","3541","3567","81637","96180","NA","3495","3497","NA","NA","NA","NA","3427","3425","3427","NA","81637","lineup1","no","5","no","1366"
"","white","no","xpyriment","legacy","legacy","0","no","relative","0","0","0","0","0","5","5","0","0","0","0","5","0","0","0","0","5","0","0","5","0","0","0","5","9","0","0","0","0","0","0","0","0","0","0","0","5","11/10/18 12:48:23","Executes Python code","yes","","lineup_videoVIPER.osexp","C:/Users/standalone/Desktop/Sat 10 Nov HS 1.24","no","mono","no","24","no","black","no","yes","female","768","No","no","no","no","legacy","no","5","0","C:/Users/standalone/Desktop/Sat 10 Nov HS 1.24/subject-156.csv","[member6]","4","5","6","3","2","1","xpyriment","Jazzy James","3.1.6","0","2","legacy","1024","2","48000","-16","experiment","156","even","legacy","[target2]","absent","present","NA","3497","NA","NA","3497","NA","107700","NA","NA","NA","NA","NA","NA","3425","3492","3495","104593","NA","NA","3892","3567","3541","3567","96460","107700","NA","3495","3497","NA","NA","NA","NA","3427","3425","3427","NA","96461","lineup1","no","6","no","1366"
"","white","no","xpyriment","legacy","legacy","0","no","relative","0","0","0","0","0","5","5","0","0","0","0","5","0","0","0","0","5","0","0","5","0","0","0","5","9","0","0","0","0","0","0","0","0","0","0","0","5","11/10/18 12:48:23","Executes Python code","yes","","lineup_videoVIPER.osexp","C:/Users/standalone/Desktop/Sat 10 Nov HS 1.24","no","mono","no","24","no","black","no","yes","female","768","No","No","no","No","legacy","no","5","0","C:/Users/standalone/Desktop/Sat 10 Nov HS 1.24/subject-156.csv","[member6]","4","5","6","3","2","1","xpyriment","Jazzy James","3.1.6","0","2","legacy","1024","2","48000","-16","experiment","156","even","legacy","[target2]","absent","present","NA","3497","112340","NA","3497","NA","107700","112340","NA","122829","NA","NA","NA","3425","3492","3495","104593","NA","NA","3892","3567","3541","3567","96460","122829","107773","3495","3497","NA","115460","NA","NA","3427","3425","3427","NA","96461","lineup1","no","6","no","1366"
"","white","no","xpyriment","legacy","legacy","0","no","relative","2","2","0","2","2","5","5","0","0","0","0","5","0","0","0","1","5","0","0","5","0","1","0","5","11","0","1","2","0","0","0","0","0","0","0","0","5","11/10/18 12:48:23","Executes Python code","yes","","lineup_videoVIPER.osexp","C:/Users/standalone/Desktop/Sat 10 Nov HS 1.24","no","mono","no","24","no","black","no","yes","male","768","No","No","no","No","legacy","no","0","0","C:/Users/standalone/Desktop/Sat 10 Nov HS 1.24/subject-156.csv","[member6]","3","1","2","5","4","7","xpyriment","Jazzy James","3.1.6","0","2","legacy","1024","2","48000","-16","experiment","156","even","legacy","[target1]","absent","present","122904","3497","112340","122904","3497","NA","107700","112340","NA","122829","NA","NA","NA","3425","3492","122899","104593","NA","NA","3892","3567","3541","3567","96460","122904","107773","122899","122904","NA","115460","NA","NA","3427","3425","3427","NA","96461","lineup1","no","6","no","1366"
"","white","no","xpyriment","legacy","legacy","0","no","relative","2","2","0","2","2","5","5","0","0","0","0","5","0","0","0","1","5","0","0","5","0","1","0","5","11","0","1","2","0","0","0","0","0","0","0","0","5","11/10/18 12:48:23","Executes Python code","yes","","lineup_videoVIPER.osexp","C:/Users/standalone/Desktop/Sat 10 Nov HS 1.24","no","mono","no","24","no","black","no","yes","male","768","No","No","no","No","legacy","no","0","0","C:/Users/standalone/Desktop/Sat 10 Nov HS 1.24/subject-156.csv","[member6]","3","1","2","5","4","7","xpyriment","Jazzy James","3.1.6","0","2","legacy","1024","2","48000","-16","experiment","156","even","legacy","[target1]","absent","present","122904","3497","112340","122904","3497","NA","107700","112340","NA","122829","NA","NA","NA","3425","3492","122899","104593","NA","NA","3892","3567","3541","3567","96460","122946","107773","122899","122904","NA","115460","NA","NA","3427","3425","3427","NA","96461","lineup1","no","6","no","1366"
"","white","no","xpyriment","legacy","legacy","0","no","relative","2","2","1","2","2","6","6","1","1","1","0","6","0","0","0","1","6","1","1","6","1","1","1","6","13","1","1","2","1","1","1","1","0","0","0","0","6","11/10/18 12:48:23","Executes Python code","yes","","lineup_videoVIPER.osexp","C:/Users/standalone/Desktop/Sat 10 Nov HS 1.24","no","mono","no","24","no","black","no","yes","male","768","No","no","no","no","legacy","no","0","0","C:/Users/standalone/Desktop/Sat 10 Nov HS 1.24/subject-156.csv","[member1]","3","1","2","5","4","7","xpyriment","Jazzy James","3.1.6","0","2","legacy","1024","2","48000","-16","experiment","156","even","legacy","[target1]","absent","present","122904","3497","112340","122904","3497","NA","132025","112340","NA","122829","NA","NA","NA","3425","3492","122899","128802","NA","NA","123274","123058","123030","123058","123274","132025","107773","122899","122904","NA","115460","NA","NA","3427","3425","3427","NA","125063","lineup1","no","1","no","1366"
"","white","no","xpyriment","legacy","legacy","0","no","relative","2","2","1","2","2","7","7","1","1","1","0","7","0","0","0","1","7","1","1","7","1","1","1","7","14","1","1","2","1","1","1","1","0","0","0","0","7","11/10/18 12:48:23","Executes Python code","yes","","lineup_videoVIPER.osexp","C:/Users/standalone/Desktop/Sat 10 Nov HS 1.24","no","mono","no","24","no","black","no","yes","male","768","No","no","no","no","legacy","no","1","0","C:/Users/standalone/Desktop/Sat 10 Nov HS 1.24/subject-156.csv","[member2]","3","1","2","5","4","7","xpyriment","Jazzy James","3.1.6","0","2","legacy","1024","2","48000","-16","experiment","156","even","legacy","[target1]","absent","present","122904","3497","112340","122904","3497","NA","137653","112340","NA","122829","NA","NA","NA","3425","3492","122899","134849","NA","NA","123274","123058","123030","123058","132312","137653","107773","122899","122904","NA","115460","NA","NA","3427","3425","3427","NA","132312","lineup1","no","2","no","1366"
"","white","no","xpyriment","legacy","legacy","0","no","relative","2","2","1","2","2","8","8","1","1","1","0","8","0","0","0","1","8","1","1","8","1","1","1","8","15","1","1","2","1","1","1","1","0","0","0","0","8","11/10/18 12:48:23","Executes Python code","yes","","lineup_videoVIPER.osexp","C:/Users/standalone/Desktop/Sat 10 Nov HS 1.24","no","mono","no","24","no","black","no","yes","male","768","Not sure","no","no","no","legacy","no","2","0","C:/Users/standalone/Desktop/Sat 10 Nov HS 1.24/subject-156.csv","[member3]","3","1","2","5","4","7","xpyriment","Jazzy James","3.1.6","0","2","legacy","1024","2","48000","-16","experiment","156","even","legacy","[target1]","absent","present","122904","3497","112340","122904","3497","NA","149160","112340","NA","122829","NA","NA","NA","3425","3492","122899","146667","NA","NA","123274","123058","123030","123058","137940","149160","107773","122899","122904","NA","115460","NA","NA","3427","3425","3427","NA","137940","lineup1","no","3","no","1366"
"","white","no","xpyriment","legacy","legacy","0","no","relative","2","2","1","2","2","9","9","1","1","1","0","9","0","0","0","1","9","1","1","9","1","1","1","9","16","1","1","2","1","1","1","1","0","0","0","0","9","11/10/18 12:48:23","Executes Python code","yes","","lineup_videoVIPER.osexp","C:/Users/standalone/Desktop/Sat 10 Nov HS 1.24","no","mono","no","24","no","black","no","yes","male","768","No","no","no","no","legacy","no","3","0","C:/Users/standalone/Desktop/Sat 10 Nov HS 1.24/subject-156.csv","[member4]","3","1","2","5","4","7","xpyriment","Jazzy James","3.1.6","0","2","legacy","1024","2","48000","-16","experiment","156","even","legacy","[target1]","absent","present","122904","3497","112340","122904","3497","NA","153685","112340","NA","122829","NA","NA","NA","3425","3492","122899","150915","NA","NA","123274","123058","123030","123058","149432","153685","107773","122899","122904","NA","115460","NA","NA","3427","3425","3427","NA","149432","lineup1","no","4","no","1366"
"","white","no","xpyriment","legacy","legacy","0","no","relative","2","2","1","2","2","10","10","1","1","1","0","10","0","0","0","1","10","1","1","10","1","1","1","10","17","1","1","2","1","1","1","1","0","0","0","0","10","11/10/18 12:48:23","Executes Python code","yes","","lineup_videoVIPER.osexp","C:/Users/standalone/Desktop/Sat 10 Nov HS 1.24","no","mono","no","24","no","black","no","yes","male","768","No","no","no","no","legacy","no","4","0","C:/Users/standalone/Desktop/Sat 10 Nov HS 1.24/subject-156.csv","[member5]","3","1","2","5","4","7","xpyriment","Jazzy James","3.1.6","0","2","legacy","1024","2","48000","-16","experiment","156","even","legacy","[target1]","absent","present","122904","3497","112340","122904","3497","NA","167627","112340","NA","122829","NA","NA","NA","3425","3492","122899","164341","NA","NA","123274","123058","123030","123058","153956","167627","107773","122899","122904","NA","115460","NA","NA","3427","3425","3427","NA","153956","lineup1","no","5","no","1366"
"","white","no","xpyriment","legacy","legacy","0","no","relative","2","2","1","2","2","11","11","1","1","1","0","11","0","0","0","1","11","1","1","11","1","1","1","11","18","1","1","2","1","1","1","1","0","0","0","0","11","11/10/18 12:48:23","Executes Python code","yes","","lineup_videoVIPER.osexp","C:/Users/standalone/Desktop/Sat 10 Nov HS 1.24","no","mono","no","24","no","black","no","yes","male","768","No","no","no","no","legacy","no","5","0","C:/Users/standalone/Desktop/Sat 10 Nov HS 1.24/subject-156.csv","[member6]","3","1","2","5","4","7","xpyriment","Jazzy James","3.1.6","0","2","legacy","1024","2","48000","-16","experiment","156","even","legacy","[target1]","absent","present","122904","3497","112340","122904","3497","NA","173855","112340","NA","122829","NA","NA","NA","3425","3492","122899","171458","NA","NA","123274","123058","123030","123058","167906","173855","107773","122899","122904","NA","115460","NA","NA","3427","3425","3427","NA","167906","lineup1","no","6","no","1366"
"","white","no","xpyriment","legacy","legacy","0","no","relative","2","2","1","2","2","11","11","1","1","1","0","11","0","0","0","1","11","1","1","11","1","1","1","11","18","1","1","2","1","1","1","1","0","0","0","0","11","11/10/18 12:48:23","Executes Python code","yes","","lineup_videoVIPER.osexp","C:/Users/standalone/Desktop/Sat 10 Nov HS 1.24","no","mono","no","24","no","black","no","yes","male","768","No","No","no","No","legacy","no","5","0","C:/Users/standalone/Desktop/Sat 10 Nov HS 1.24/subject-156.csv","[member6]","3","1","2","5","4","7","xpyriment","Jazzy James","3.1.6","0","2","legacy","1024","2","48000","-16","experiment","156","even","legacy","[target1]","absent","present","122904","3497","176946","122904","3497","NA","173855","176946","NA","183029","NA","NA","NA","3425","3492","122899","171458","NA","NA","123274","123058","123030","123058","167906","183029","173914","122899","122904","NA","179021","NA","NA","3427","3425","3427","NA","167906","lineup1","no","6","no","1366"
"","white","no","xpyriment","legacy","legacy","0","no","relative","2","2","1","2","2","11","11","1","1","1","0","11","0","0","0","1","11","1","1","11","1","1","1","11","18","1","1","2","1","1","1","1","0","0","0","0","11","11/10/18 12:48:23","Executes Python code","yes","","lineup_videoVIPER.osexp","C:/Users/standalone/Desktop/Sat 10 Nov HS 1.24","no","mono","no","24","no","black","no","yes","male","768","No","No","no","No","legacy","12.15pm","5","0","C:/Users/standalone/Desktop/Sat 10 Nov HS 1.24/subject-156.csv","[member6]","3","1","2","5","4","7","xpyriment","Jazzy James","3.1.6","0","2","legacy","1024","2","48000","-16","experiment","156","even","legacy","[target1]","absent","present","122904","3497","176946","122904","3497","NA","173855","176946","NA","183029","189888","NA","189888","3425","3492","122899","171458","NA","NA","123274","123058","123030","123058","167906","191491","173914","122899","122904","NA","179021","NA","NA","3427","3425","3427","183105","167906","lineup1","no","6","no","1366"
