"_prepare"	"background"	"bidi"	"canvas_backend"	"clock_backend"	"color_backend"	"compensation"	"confidence_immediate"	"coordinates"	"count_TA_sequence_setting"	"count_TP_sequence_setting"	"count_admin_check"	"count_check_TA"	"count_check_TP"	"count_check_confidence_imm"	"count_check_identification"	"count_check_made_identification"	"count_check_multiple_identification"	"count_check_proceeding_identification"	"count_confidence_imm"	"count_end_of_experiment"	"count_experiment"	"count_gender_lineup_loop"	"count_gender_randomization_sequence"	"count_identification_task"	"count_instructions_after_multiple"	"count_instructions_after_proceed_identification"	"count_instructions_before_view"	"count_lineup_loop"	"count_lineup_procedure_loop"	"count_lineup_procedure_sequence"	"count_lineup_sequence"	"count_logger"	"count_made_identification"	"count_member_randomization_loop"	"count_member_randomization_sequence"	"count_multiple_identification"	"count_proceed_identification"	"count_repeat_lineup_sequence_identification"	"count_repeat_lineup_sequence_multiple"	"count_target_setting"	"count_target_setting_loop"	"count_target_setting_sequence"	"count_video"	"datetime"	"description"	"disable_garbage_collection"	"empty_column"	"experiment_file"	"experiment_path"	"font_bold"	"font_family"	"font_italic"	"font_size"	"font_underline"	"foreground"	"form_clicks"	"fullscreen"	"gender"	"height"	"identification"	"identification_made"	"identification_multiple"	"identification_proceed"	"keyboard_backend"	"live_row"	"live_row_target_setting_loop"	"logfile"	"member"	"member1"	"member2"	"member3"	"member4"	"member5"	"member6"	"mouse_backend"	"opensesame_codename"	"opensesame_version"	"repeat_cycle"	"round_decimals"	"sampler_backend"	"sound_buf_size"	"sound_channels"	"sound_freq"	"sound_sample_size"	"start"	"subject_nr"	"subject_parity"	"synth_backend"	"target"	"target1"	"target2"	"time_TA_sequence_setting"	"time_TP_sequence_setting"	"time_admin_check"	"time_check_TA"	"time_check_TP"	"time_check_confidence_imm"	"time_check_identification"	"time_check_made_identification"	"time_check_multiple_identification"	"time_check_proceeding_identification"	"time_confidence_imm"	"time_end_of_experiment"	"time_experiment"	"time_gender_lineup_loop"	"time_gender_randomization_sequence"	"time_identification_task"	"time_instructions_after_multiple"	"time_instructions_after_proceed_identification"	"time_instructions_before_view"	"time_lineup_loop"	"time_lineup_procedure_loop"	"time_lineup_procedure_sequence"	"time_lineup_sequence"	"time_logger"	"time_made_identification"	"time_member_randomization_loop"	"time_member_randomization_sequence"	"time_multiple_identification"	"time_proceed_identification"	"time_repeat_lineup_sequence_identification"	"time_repeat_lineup_sequence_multiple"	"time_target_setting"	"time_target_setting_loop"	"time_target_setting_sequence"	"time_video"	"title"	"transparent_variables"	"trial"	"uniform_coordinates"	"width"
"1"	""	"white"	"no"	"xpyriment"	"legacy"	"legacy"	"0"	NA	"relative"	NA	NA	NA	NA	NA	NA	NA	NA	NA	NA	NA	"0"	"0"	"0"	NA	NA	NA	NA	NA	NA	NA	NA	NA	"1"	NA	NA	NA	NA	NA	NA	NA	"0"	"0"	"0"	NA	"02/14/18 14:43:31"	"Executes Python code"	"yes"	""	"lineup_videoVIPER_W.osexp"	"C:/Users/standalone/Desktop/Wednesday 1402 room 1.26 VIPER"	"no"	"mono"	"no"	"24"	"no"	"black"	"no"	"yes"	NA	"768"	NA	NA	NA	NA	"legacy"	"0"	"0"	"C:/Users/standalone/Desktop/Wednesday 1402 room 1.26 VIPER/subject-69.csv"	NA	NA	NA	NA	NA	NA	NA	"xpyriment"	"Jazzy James"	"3.1.6"	"0"	"2"	"legacy"	"1024"	"2"	"48000"	"-16"	"experiment"	"69"	"odd"	"legacy"	NA	"present"	"absent"	NA	NA	NA	NA	NA	NA	NA	NA	NA	NA	NA	NA	"2188"	NA	NA	NA	NA	NA	NA	NA	NA	NA	NA	"2190"	NA	NA	NA	NA	NA	NA	NA	"2190"	"2188"	"2190"	NA	"lineup1"	"no"	NA	"no"	"1366"
"2"	""	"white"	"no"	"xpyriment"	"legacy"	"legacy"	"0"	NA	"relative"	"0"	"0"	NA	"0"	"0"	NA	NA	NA	NA	NA	NA	"0"	"0"	"0"	"0"	NA	NA	NA	NA	NA	"0"	NA	NA	"2"	NA	"0"	"0"	NA	NA	NA	NA	"0"	"0"	"0"	NA	"02/14/18 14:43:31"	"Executes Python code"	"yes"	""	"lineup_videoVIPER_W.osexp"	"C:/Users/standalone/Desktop/Wednesday 1402 room 1.26 VIPER"	"no"	"mono"	"no"	"24"	"no"	"black"	"no"	"yes"	"female"	"768"	NA	NA	NA	NA	"legacy"	"0"	"0"	"C:/Users/standalone/Desktop/Wednesday 1402 room 1.26 VIPER/subject-69.csv"	NA	"3"	"1"	"5"	"2"	"4"	"7"	"xpyriment"	"Jazzy James"	"3.1.6"	"0"	"2"	"legacy"	"1024"	"2"	"48000"	"-16"	"experiment"	"69"	"odd"	"legacy"	"[target2]"	"present"	"absent"	"2267"	NA	NA	"2267"	NA	NA	NA	NA	NA	NA	NA	NA	"2188"	"2262"	"2265"	NA	NA	NA	NA	NA	NA	NA	NA	"2267"	NA	"2265"	"2267"	NA	NA	NA	NA	"2190"	"2188"	"2190"	NA	"lineup1"	"no"	NA	"no"	"1366"
"3"	""	"white"	"no"	"xpyriment"	"legacy"	"legacy"	"0"	"no"	"relative"	"0"	"0"	"0"	"0"	"0"	"0"	"0"	"0"	"0"	"0"	"0"	"0"	"0"	"0"	"0"	"0"	"0"	"0"	"0"	"0"	"0"	"0"	"0"	"4"	"0"	"0"	"0"	"0"	"0"	"0"	"0"	"0"	"0"	"0"	"0"	"02/14/18 14:43:31"	"Executes Python code"	"yes"	""	"lineup_videoVIPER_W.osexp"	"C:/Users/standalone/Desktop/Wednesday 1402 room 1.26 VIPER"	"no"	"mono"	"no"	"24"	"no"	"black"	"no"	"yes"	"female"	"768"	"No"	"no"	"no"	"no"	"legacy"	"0"	"0"	"C:/Users/standalone/Desktop/Wednesday 1402 room 1.26 VIPER/subject-69.csv"	"[member1]"	"3"	"1"	"5"	"2"	"4"	"7"	"xpyriment"	"Jazzy James"	"3.1.6"	"0"	"2"	"legacy"	"1024"	"2"	"48000"	"-16"	"experiment"	"69"	"odd"	"legacy"	"[target2]"	"present"	"absent"	"2267"	NA	NA	"2267"	NA	NA	"38618"	NA	NA	NA	NA	NA	"2188"	"2262"	"2265"	"32883"	NA	NA	"2667"	"2341"	"2317"	"2340"	"2667"	"38618"	NA	"2265"	"2267"	NA	NA	NA	NA	"2190"	"2188"	"2190"	"6744"	"lineup1"	"no"	"1"	"no"	"1366"
"4"	""	"white"	"no"	"xpyriment"	"legacy"	"legacy"	"0"	"no"	"relative"	"0"	"0"	"0"	"0"	"0"	"1"	"1"	"0"	"0"	"0"	"1"	"0"	"0"	"0"	"0"	"1"	"0"	"0"	"1"	"0"	"0"	"0"	"1"	"5"	"0"	"0"	"0"	"0"	"0"	"0"	"0"	"0"	"0"	"0"	"1"	"02/14/18 14:43:31"	"Executes Python code"	"yes"	""	"lineup_videoVIPER_W.osexp"	"C:/Users/standalone/Desktop/Wednesday 1402 room 1.26 VIPER"	"no"	"mono"	"no"	"24"	"no"	"black"	"no"	"yes"	"female"	"768"	"No"	"no"	"no"	"no"	"legacy"	"1"	"0"	"C:/Users/standalone/Desktop/Wednesday 1402 room 1.26 VIPER/subject-69.csv"	"[member2]"	"3"	"1"	"5"	"2"	"4"	"7"	"xpyriment"	"Jazzy James"	"3.1.6"	"0"	"2"	"legacy"	"1024"	"2"	"48000"	"-16"	"experiment"	"69"	"odd"	"legacy"	"[target2]"	"present"	"absent"	"2267"	NA	NA	"2267"	NA	NA	"42500"	NA	NA	NA	NA	NA	"2188"	"2262"	"2265"	"40435"	NA	NA	"2667"	"2341"	"2317"	"2340"	"38863"	"42500"	NA	"2265"	"2267"	NA	NA	NA	NA	"2190"	"2188"	"2190"	"38863"	"lineup1"	"no"	"2"	"no"	"1366"
"5"	""	"white"	"no"	"xpyriment"	"legacy"	"legacy"	"0"	"no"	"relative"	"0"	"0"	"0"	"0"	"0"	"2"	"2"	"0"	"0"	"0"	"2"	"0"	"0"	"0"	"0"	"2"	"0"	"0"	"2"	"0"	"0"	"0"	"2"	"6"	"0"	"0"	"0"	"0"	"0"	"0"	"0"	"0"	"0"	"0"	"2"	"02/14/18 14:43:31"	"Executes Python code"	"yes"	""	"lineup_videoVIPER_W.osexp"	"C:/Users/standalone/Desktop/Wednesday 1402 room 1.26 VIPER"	"no"	"mono"	"no"	"24"	"no"	"black"	"no"	"yes"	"female"	"768"	"No"	"no"	"no"	"no"	"legacy"	"2"	"0"	"C:/Users/standalone/Desktop/Wednesday 1402 room 1.26 VIPER/subject-69.csv"	"[member3]"	"3"	"1"	"5"	"2"	"4"	"7"	"xpyriment"	"Jazzy James"	"3.1.6"	"0"	"2"	"legacy"	"1024"	"2"	"48000"	"-16"	"experiment"	"69"	"odd"	"legacy"	"[target2]"	"present"	"absent"	"2267"	NA	NA	"2267"	NA	NA	"50145"	NA	NA	NA	NA	NA	"2188"	"2262"	"2265"	"47805"	NA	NA	"2667"	"2341"	"2317"	"2340"	"42739"	"50145"	NA	"2265"	"2267"	NA	NA	NA	NA	"2190"	"2188"	"2190"	"42739"	"lineup1"	"no"	"3"	"no"	"1366"
"6"	""	"white"	"no"	"xpyriment"	"legacy"	"legacy"	"0"	"no"	"relative"	"0"	"0"	"0"	"0"	"0"	"3"	"3"	"0"	"0"	"0"	"3"	"0"	"0"	"0"	"0"	"3"	"0"	"0"	"3"	"0"	"0"	"0"	"3"	"7"	"0"	"0"	"0"	"0"	"0"	"0"	"0"	"0"	"0"	"0"	"3"	"02/14/18 14:43:31"	"Executes Python code"	"yes"	""	"lineup_videoVIPER_W.osexp"	"C:/Users/standalone/Desktop/Wednesday 1402 room 1.26 VIPER"	"no"	"mono"	"no"	"24"	"no"	"black"	"no"	"yes"	"female"	"768"	"Not sure"	"no"	"no"	"no"	"legacy"	"3"	"0"	"C:/Users/standalone/Desktop/Wednesday 1402 room 1.26 VIPER/subject-69.csv"	"[member4]"	"3"	"1"	"5"	"2"	"4"	"7"	"xpyriment"	"Jazzy James"	"3.1.6"	"0"	"2"	"legacy"	"1024"	"2"	"48000"	"-16"	"experiment"	"69"	"odd"	"legacy"	"[target2]"	"present"	"absent"	"2267"	NA	NA	"2267"	NA	NA	"69921"	NA	NA	NA	NA	NA	"2188"	"2262"	"2265"	"67225"	NA	NA	"2667"	"2341"	"2317"	"2340"	"50382"	"69921"	NA	"2265"	"2267"	NA	NA	NA	NA	"2190"	"2188"	"2190"	"50382"	"lineup1"	"no"	"4"	"no"	"1366"
"7"	""	"white"	"no"	"xpyriment"	"legacy"	"legacy"	"0"	"no"	"relative"	"0"	"0"	"0"	"0"	"0"	"4"	"4"	"0"	"0"	"0"	"4"	"0"	"0"	"0"	"0"	"4"	"0"	"0"	"4"	"0"	"0"	"0"	"4"	"8"	"0"	"0"	"0"	"0"	"0"	"0"	"0"	"0"	"0"	"0"	"4"	"02/14/18 14:43:31"	"Executes Python code"	"yes"	""	"lineup_videoVIPER_W.osexp"	"C:/Users/standalone/Desktop/Wednesday 1402 room 1.26 VIPER"	"no"	"mono"	"no"	"24"	"no"	"black"	"no"	"yes"	"female"	"768"	"No"	"no"	"no"	"no"	"legacy"	"4"	"0"	"C:/Users/standalone/Desktop/Wednesday 1402 room 1.26 VIPER/subject-69.csv"	"[member5]"	"3"	"1"	"5"	"2"	"4"	"7"	"xpyriment"	"Jazzy James"	"3.1.6"	"0"	"2"	"legacy"	"1024"	"2"	"48000"	"-16"	"experiment"	"69"	"odd"	"legacy"	"[target2]"	"present"	"absent"	"2267"	NA	NA	"2267"	NA	NA	"73890"	NA	NA	NA	NA	NA	"2188"	"2262"	"2265"	"71835"	NA	NA	"2667"	"2341"	"2317"	"2340"	"70158"	"73890"	NA	"2265"	"2267"	NA	NA	NA	NA	"2190"	"2188"	"2190"	"70158"	"lineup1"	"no"	"5"	"no"	"1366"
"8"	""	"white"	"no"	"xpyriment"	"legacy"	"legacy"	"0"	"no"	"relative"	"0"	"0"	"0"	"0"	"0"	"5"	"5"	"0"	"0"	"0"	"5"	"0"	"0"	"0"	"0"	"5"	"0"	"0"	"5"	"0"	"0"	"0"	"5"	"9"	"0"	"0"	"0"	"0"	"0"	"0"	"0"	"0"	"0"	"0"	"5"	"02/14/18 14:43:31"	"Executes Python code"	"yes"	""	"lineup_videoVIPER_W.osexp"	"C:/Users/standalone/Desktop/Wednesday 1402 room 1.26 VIPER"	"no"	"mono"	"no"	"24"	"no"	"black"	"no"	"yes"	"female"	"768"	"No"	"no"	"no"	"no"	"legacy"	"5"	"0"	"C:/Users/standalone/Desktop/Wednesday 1402 room 1.26 VIPER/subject-69.csv"	"[member6]"	"3"	"1"	"5"	"2"	"4"	"7"	"xpyriment"	"Jazzy James"	"3.1.6"	"0"	"2"	"legacy"	"1024"	"2"	"48000"	"-16"	"experiment"	"69"	"odd"	"legacy"	"[target2]"	"present"	"absent"	"2267"	NA	NA	"2267"	NA	NA	"80854"	NA	NA	NA	NA	NA	"2188"	"2262"	"2265"	"78477"	NA	NA	"2667"	"2341"	"2317"	"2340"	"74135"	"80854"	NA	"2265"	"2267"	NA	NA	NA	NA	"2190"	"2188"	"2190"	"74135"	"lineup1"	"no"	"6"	"no"	"1366"
"9"	""	"white"	"no"	"xpyriment"	"legacy"	"legacy"	"0"	"no"	"relative"	"0"	"0"	"0"	"0"	"0"	"5"	"5"	"0"	"0"	"0"	"5"	"0"	"0"	"0"	"0"	"5"	"0"	"0"	"5"	"0"	"0"	"0"	"5"	"9"	"0"	"0"	"0"	"0"	"0"	"0"	"0"	"0"	"0"	"0"	"5"	"02/14/18 14:43:31"	"Executes Python code"	"yes"	""	"lineup_videoVIPER_W.osexp"	"C:/Users/standalone/Desktop/Wednesday 1402 room 1.26 VIPER"	"no"	"mono"	"no"	"24"	"no"	"black"	"no"	"yes"	"female"	"768"	"No"	"No"	"no"	"No"	"legacy"	"5"	"0"	"C:/Users/standalone/Desktop/Wednesday 1402 room 1.26 VIPER/subject-69.csv"	"[member6]"	"3"	"1"	"5"	"2"	"4"	"7"	"xpyriment"	"Jazzy James"	"3.1.6"	"0"	"2"	"legacy"	"1024"	"2"	"48000"	"-16"	"experiment"	"69"	"odd"	"legacy"	"[target2]"	"present"	"absent"	"2267"	NA	"94148"	"2267"	NA	NA	"80854"	"94148"	NA	"109367"	NA	NA	"2188"	"2262"	"2265"	"78477"	NA	NA	"2667"	"2341"	"2317"	"2340"	"74135"	"109368"	"80905"	"2265"	"2267"	NA	"100158"	NA	NA	"2190"	"2188"	"2190"	"74135"	"lineup1"	"no"	"6"	"no"	"1366"
"10"	""	"white"	"no"	"xpyriment"	"legacy"	"legacy"	"0"	"no"	"relative"	"3"	"3"	"0"	"3"	"3"	"5"	"5"	"0"	"0"	"0"	"5"	"0"	"0"	"0"	"1"	"5"	"0"	"0"	"5"	"0"	"1"	"0"	"5"	"12"	"0"	"1"	"3"	"0"	"0"	"0"	"0"	"0"	"0"	"0"	"5"	"02/14/18 14:43:31"	"Executes Python code"	"yes"	""	"lineup_videoVIPER_W.osexp"	"C:/Users/standalone/Desktop/Wednesday 1402 room 1.26 VIPER"	"no"	"mono"	"no"	"24"	"no"	"black"	"no"	"yes"	"male"	"768"	"No"	"No"	"no"	"No"	"legacy"	"0"	"0"	"C:/Users/standalone/Desktop/Wednesday 1402 room 1.26 VIPER/subject-69.csv"	"[member6]"	"4"	"5"	"3"	"1"	"2"	"6"	"xpyriment"	"Jazzy James"	"3.1.6"	"0"	"2"	"legacy"	"1024"	"2"	"48000"	"-16"	"experiment"	"69"	"odd"	"legacy"	"[target1]"	"present"	"absent"	"2267"	"109441"	"94148"	"2267"	"109441"	NA	"80854"	"94148"	NA	"109367"	NA	NA	"2188"	"2262"	"109434"	"78477"	NA	NA	"2667"	"2341"	"2317"	"2340"	"74135"	"109441"	"80905"	"109434"	"109441"	NA	"100158"	NA	NA	"2190"	"2188"	"2190"	"74135"	"lineup1"	"no"	"6"	"no"	"1366"
"11"	""	"white"	"no"	"xpyriment"	"legacy"	"legacy"	"0"	"no"	"relative"	"3"	"3"	"0"	"3"	"3"	"5"	"5"	"0"	"0"	"0"	"5"	"0"	"0"	"0"	"1"	"5"	"0"	"0"	"5"	"0"	"1"	"0"	"5"	"12"	"0"	"1"	"3"	"0"	"0"	"0"	"0"	"0"	"0"	"0"	"5"	"02/14/18 14:43:31"	"Executes Python code"	"yes"	""	"lineup_videoVIPER_W.osexp"	"C:/Users/standalone/Desktop/Wednesday 1402 room 1.26 VIPER"	"no"	"mono"	"no"	"24"	"no"	"black"	"no"	"yes"	"male"	"768"	"No"	"No"	"no"	"No"	"legacy"	"0"	"0"	"C:/Users/standalone/Desktop/Wednesday 1402 room 1.26 VIPER/subject-69.csv"	"[member6]"	"4"	"5"	"3"	"1"	"2"	"6"	"xpyriment"	"Jazzy James"	"3.1.6"	"0"	"2"	"legacy"	"1024"	"2"	"48000"	"-16"	"experiment"	"69"	"odd"	"legacy"	"[target1]"	"present"	"absent"	"2267"	"109441"	"94148"	"2267"	"109441"	NA	"80854"	"94148"	NA	"109367"	NA	NA	"2188"	"2262"	"109434"	"78477"	NA	NA	"2667"	"2341"	"2317"	"2340"	"74135"	"109480"	"80905"	"109434"	"109441"	NA	"100158"	NA	NA	"2190"	"2188"	"2190"	"74135"	"lineup1"	"no"	"6"	"no"	"1366"
"12"	""	"white"	"no"	"xpyriment"	"legacy"	"legacy"	"0"	"no"	"relative"	"3"	"3"	"0"	"3"	"3"	"5"	"5"	"0"	"0"	"0"	"5"	"0"	"0"	"0"	"1"	"5"	"0"	"0"	"5"	"0"	"1"	"0"	"5"	"12"	"0"	"1"	"3"	"0"	"0"	"0"	"0"	"0"	"0"	"0"	"5"	"02/14/18 14:43:31"	"Executes Python code"	"yes"	""	"lineup_videoVIPER_W.osexp"	"C:/Users/standalone/Desktop/Wednesday 1402 room 1.26 VIPER"	"no"	"mono"	"no"	"24"	"no"	"black"	"no"	"yes"	"male"	"768"	"No"	"No"	"no"	"No"	"legacy"	"0"	"0"	"C:/Users/standalone/Desktop/Wednesday 1402 room 1.26 VIPER/subject-69.csv"	"[member6]"	"4"	"5"	"3"	"1"	"2"	"6"	"xpyriment"	"Jazzy James"	"3.1.6"	"0"	"2"	"legacy"	"1024"	"2"	"48000"	"-16"	"experiment"	"69"	"odd"	"legacy"	"[target1]"	"present"	"absent"	"2267"	"109441"	"94148"	"2267"	"109441"	NA	"80854"	"94148"	NA	"109367"	NA	NA	"2188"	"2262"	"109434"	"78477"	NA	NA	"2667"	"2341"	"2317"	"2340"	"74135"	"109520"	"80905"	"109434"	"109441"	NA	"100158"	NA	NA	"2190"	"2188"	"2190"	"74135"	"lineup1"	"no"	"6"	"no"	"1366"
"13"	""	"white"	"no"	"xpyriment"	"legacy"	"legacy"	"0"	"no"	"relative"	"3"	"3"	"1"	"3"	"3"	"6"	"6"	"1"	"1"	"1"	"6"	"0"	"0"	"0"	"1"	"6"	"1"	"1"	"6"	"1"	"1"	"1"	"6"	"14"	"1"	"1"	"3"	"1"	"1"	"1"	"1"	"0"	"0"	"0"	"6"	"02/14/18 14:43:31"	"Executes Python code"	"yes"	""	"lineup_videoVIPER_W.osexp"	"C:/Users/standalone/Desktop/Wednesday 1402 room 1.26 VIPER"	"no"	"mono"	"no"	"24"	"no"	"black"	"no"	"yes"	"male"	"768"	"No"	"no"	"no"	"no"	"legacy"	"0"	"0"	"C:/Users/standalone/Desktop/Wednesday 1402 room 1.26 VIPER/subject-69.csv"	"[member1]"	"4"	"5"	"3"	"1"	"2"	"6"	"xpyriment"	"Jazzy James"	"3.1.6"	"0"	"2"	"legacy"	"1024"	"2"	"48000"	"-16"	"experiment"	"69"	"odd"	"legacy"	"[target1]"	"present"	"absent"	"2267"	"109441"	"94148"	"2267"	"109441"	NA	"118258"	"94148"	NA	"109367"	NA	NA	"2188"	"2262"	"109434"	"115972"	NA	NA	"109770"	"109578"	"109555"	"109578"	"109770"	"118258"	"80905"	"109434"	"109441"	NA	"100158"	NA	NA	"2190"	"2188"	"2190"	"112449"	"lineup1"	"no"	"1"	"no"	"1366"
"14"	""	"white"	"no"	"xpyriment"	"legacy"	"legacy"	"0"	"no"	"relative"	"3"	"3"	"1"	"3"	"3"	"7"	"7"	"1"	"1"	"1"	"7"	"0"	"0"	"0"	"1"	"7"	"1"	"1"	"7"	"1"	"1"	"1"	"7"	"15"	"1"	"1"	"3"	"1"	"1"	"1"	"1"	"0"	"0"	"0"	"7"	"02/14/18 14:43:31"	"Executes Python code"	"yes"	""	"lineup_videoVIPER_W.osexp"	"C:/Users/standalone/Desktop/Wednesday 1402 room 1.26 VIPER"	"no"	"mono"	"no"	"24"	"no"	"black"	"no"	"yes"	"male"	"768"	"No"	"no"	"no"	"no"	"legacy"	"1"	"0"	"C:/Users/standalone/Desktop/Wednesday 1402 room 1.26 VIPER/subject-69.csv"	"[member2]"	"4"	"5"	"3"	"1"	"2"	"6"	"xpyriment"	"Jazzy James"	"3.1.6"	"0"	"2"	"legacy"	"1024"	"2"	"48000"	"-16"	"experiment"	"69"	"odd"	"legacy"	"[target1]"	"present"	"absent"	"2267"	"109441"	"94148"	"2267"	"109441"	NA	"132839"	"94148"	NA	"109367"	NA	NA	"2188"	"2262"	"109434"	"128444"	NA	NA	"109770"	"109578"	"109555"	"109578"	"118502"	"132839"	"80905"	"109434"	"109441"	NA	"100158"	NA	NA	"2190"	"2188"	"2190"	"118502"	"lineup1"	"no"	"2"	"no"	"1366"
"15"	""	"white"	"no"	"xpyriment"	"legacy"	"legacy"	"0"	"no"	"relative"	"3"	"3"	"1"	"3"	"3"	"8"	"8"	"1"	"1"	"1"	"8"	"0"	"0"	"0"	"1"	"8"	"1"	"1"	"8"	"1"	"1"	"1"	"8"	"16"	"1"	"1"	"3"	"1"	"1"	"1"	"1"	"0"	"0"	"0"	"8"	"02/14/18 14:43:31"	"Executes Python code"	"yes"	""	"lineup_videoVIPER_W.osexp"	"C:/Users/standalone/Desktop/Wednesday 1402 room 1.26 VIPER"	"no"	"mono"	"no"	"24"	"no"	"black"	"no"	"yes"	"male"	"768"	"No"	"no"	"no"	"no"	"legacy"	"2"	"0"	"C:/Users/standalone/Desktop/Wednesday 1402 room 1.26 VIPER/subject-69.csv"	"[member3]"	"4"	"5"	"3"	"1"	"2"	"6"	"xpyriment"	"Jazzy James"	"3.1.6"	"0"	"2"	"legacy"	"1024"	"2"	"48000"	"-16"	"experiment"	"69"	"odd"	"legacy"	"[target1]"	"present"	"absent"	"2267"	"109441"	"94148"	"2267"	"109441"	NA	"136972"	"94148"	NA	"109367"	NA	NA	"2188"	"2262"	"109434"	"134931"	NA	NA	"109770"	"109578"	"109555"	"109578"	"133084"	"136972"	"80905"	"109434"	"109441"	NA	"100158"	NA	NA	"2190"	"2188"	"2190"	"133084"	"lineup1"	"no"	"3"	"no"	"1366"
"16"	""	"white"	"no"	"xpyriment"	"legacy"	"legacy"	"0"	"no"	"relative"	"3"	"3"	"1"	"3"	"3"	"9"	"9"	"1"	"1"	"1"	"9"	"0"	"0"	"0"	"1"	"9"	"1"	"1"	"9"	"1"	"1"	"1"	"9"	"17"	"1"	"1"	"3"	"1"	"1"	"1"	"1"	"0"	"0"	"0"	"9"	"02/14/18 14:43:31"	"Executes Python code"	"yes"	""	"lineup_videoVIPER_W.osexp"	"C:/Users/standalone/Desktop/Wednesday 1402 room 1.26 VIPER"	"no"	"mono"	"no"	"24"	"no"	"black"	"no"	"yes"	"male"	"768"	"No"	"no"	"no"	"no"	"legacy"	"3"	"0"	"C:/Users/standalone/Desktop/Wednesday 1402 room 1.26 VIPER/subject-69.csv"	"[member4]"	"4"	"5"	"3"	"1"	"2"	"6"	"xpyriment"	"Jazzy James"	"3.1.6"	"0"	"2"	"legacy"	"1024"	"2"	"48000"	"-16"	"experiment"	"69"	"odd"	"legacy"	"[target1]"	"present"	"absent"	"2267"	"109441"	"94148"	"2267"	"109441"	NA	"145644"	"94148"	NA	"109367"	NA	NA	"2188"	"2262"	"109434"	"143853"	NA	NA	"109770"	"109578"	"109555"	"109578"	"137222"	"145644"	"80905"	"109434"	"109441"	NA	"100158"	NA	NA	"2190"	"2188"	"2190"	"137222"	"lineup1"	"no"	"4"	"no"	"1366"
"17"	""	"white"	"no"	"xpyriment"	"legacy"	"legacy"	"0"	"no"	"relative"	"3"	"3"	"1"	"3"	"3"	"10"	"10"	"1"	"1"	"1"	"10"	"0"	"0"	"0"	"1"	"10"	"1"	"1"	"10"	"1"	"1"	"1"	"10"	"18"	"1"	"1"	"3"	"1"	"1"	"1"	"1"	"0"	"0"	"0"	"10"	"02/14/18 14:43:31"	"Executes Python code"	"yes"	""	"lineup_videoVIPER_W.osexp"	"C:/Users/standalone/Desktop/Wednesday 1402 room 1.26 VIPER"	"no"	"mono"	"no"	"24"	"no"	"black"	"no"	"yes"	"male"	"768"	"No"	"no"	"no"	"no"	"legacy"	"4"	"0"	"C:/Users/standalone/Desktop/Wednesday 1402 room 1.26 VIPER/subject-69.csv"	"[member5]"	"4"	"5"	"3"	"1"	"2"	"6"	"xpyriment"	"Jazzy James"	"3.1.6"	"0"	"2"	"legacy"	"1024"	"2"	"48000"	"-16"	"experiment"	"69"	"odd"	"legacy"	"[target1]"	"present"	"absent"	"2267"	"109441"	"94148"	"2267"	"109441"	NA	"148841"	"94148"	NA	"109367"	NA	NA	"2188"	"2262"	"109434"	"146788"	NA	NA	"109770"	"109578"	"109555"	"109578"	"145887"	"148841"	"80905"	"109434"	"109441"	NA	"100158"	NA	NA	"2190"	"2188"	"2190"	"145888"	"lineup1"	"no"	"5"	"no"	"1366"
"18"	""	"white"	"no"	"xpyriment"	"legacy"	"legacy"	"0"	"90"	"relative"	"3"	"3"	"1"	"3"	"3"	"11"	"11"	"1"	"1"	"1"	"11"	"0"	"0"	"0"	"1"	"11"	"1"	"1"	"11"	"1"	"1"	"1"	"11"	"19"	"1"	"1"	"3"	"1"	"1"	"1"	"1"	"0"	"0"	"0"	"11"	"02/14/18 14:43:31"	"Executes Python code"	"yes"	""	"lineup_videoVIPER_W.osexp"	"C:/Users/standalone/Desktop/Wednesday 1402 room 1.26 VIPER"	"no"	"mono"	"no"	"24"	"no"	"black"	"no"	"yes"	"male"	"768"	"Yes"	"no"	"no"	"no"	"legacy"	"5"	"0"	"C:/Users/standalone/Desktop/Wednesday 1402 room 1.26 VIPER/subject-69.csv"	"[member6]"	"4"	"5"	"3"	"1"	"2"	"6"	"xpyriment"	"Jazzy James"	"3.1.6"	"0"	"2"	"legacy"	"1024"	"2"	"48000"	"-16"	"experiment"	"69"	"odd"	"legacy"	"[target1]"	"present"	"absent"	"2267"	"109441"	"94148"	"2267"	"109441"	"162512"	"152790"	"94148"	NA	"109367"	"152790"	NA	"2188"	"2262"	"109434"	"150372"	NA	NA	"109770"	"109578"	"109555"	"109578"	"149080"	"162512"	"80905"	"109434"	"109441"	NA	"100158"	NA	NA	"2190"	"2188"	"2190"	"149080"	"lineup1"	"no"	"6"	"no"	"1366"
"19"	""	"white"	"no"	"xpyriment"	"legacy"	"legacy"	"0"	"90"	"relative"	"3"	"3"	"1"	"3"	"3"	"11"	"11"	"1"	"1"	"1"	"11"	"0"	"0"	"0"	"1"	"11"	"1"	"1"	"11"	"1"	"1"	"1"	"11"	"19"	"1"	"1"	"3"	"1"	"1"	"1"	"1"	"0"	"0"	"0"	"11"	"02/14/18 14:43:31"	"Executes Python code"	"yes"	""	"lineup_videoVIPER_W.osexp"	"C:/Users/standalone/Desktop/Wednesday 1402 room 1.26 VIPER"	"no"	"mono"	"no"	"24"	"no"	"black"	"no"	"yes"	"male"	"768"	"Yes"	"Yes"	"One"	"No"	"legacy"	"5"	"0"	"C:/Users/standalone/Desktop/Wednesday 1402 room 1.26 VIPER/subject-69.csv"	"[member6]"	"4"	"5"	"3"	"1"	"2"	"6"	"xpyriment"	"Jazzy James"	"3.1.6"	"0"	"2"	"legacy"	"1024"	"2"	"48000"	"-16"	"experiment"	"69"	"odd"	"legacy"	"[target1]"	"present"	"absent"	"2267"	"109441"	"173398"	"2267"	"109441"	"162512"	"152790"	"166574"	"173398"	"183545"	"152790"	NA	"2188"	"2262"	"109434"	"150372"	NA	NA	"109770"	"109578"	"109555"	"109578"	"149080"	"183545"	"162557"	"109434"	"109441"	"166575"	"178626"	NA	NA	"2190"	"2188"	"2190"	"149080"	"lineup1"	"no"	"6"	"no"	"1366"
"20"	""	"white"	"no"	"xpyriment"	"legacy"	"legacy"	"0"	"90"	"relative"	"3"	"3"	"1"	"3"	"3"	"11"	"11"	"1"	"1"	"1"	"11"	"0"	"0"	"0"	"1"	"11"	"1"	"1"	"11"	"1"	"1"	"1"	"11"	"19"	"1"	"1"	"3"	"1"	"1"	"1"	"1"	"0"	"0"	"0"	"11"	"02/14/18 14:43:31"	"Executes Python code"	"yes"	""	"lineup_videoVIPER_W.osexp"	"C:/Users/standalone/Desktop/Wednesday 1402 room 1.26 VIPER"	"no"	"mono"	"no"	"24"	"no"	"black"	"no"	"yes"	"male"	"768"	"Yes"	"Yes"	"One"	"No"	"legacy"	"5"	"0"	"C:/Users/standalone/Desktop/Wednesday 1402 room 1.26 VIPER/subject-69.csv"	"[member6]"	"4"	"5"	"3"	"1"	"2"	"6"	"xpyriment"	"Jazzy James"	"3.1.6"	"0"	"2"	"legacy"	"1024"	"2"	"48000"	"-16"	"experiment"	"69"	"odd"	"legacy"	"[target1]"	"present"	"absent"	"2267"	"109441"	"173398"	"2267"	"109441"	"162512"	"152790"	"166574"	"173398"	"183545"	"152790"	"183616"	"2188"	"2262"	"109434"	"150372"	NA	NA	"109770"	"109578"	"109555"	"109578"	"149080"	"248218"	"162557"	"109434"	"109441"	"166575"	"178626"	NA	NA	"2190"	"2188"	"2190"	"149080"	"lineup1"	"no"	"6"	"no"	"1366"
"21"	""	"white"	"no"	"xpyriment"	"legacy"	"legacy"	"0"	NA	"relative"	NA	NA	NA	NA	NA	NA	NA	NA	NA	NA	NA	"0"	"0"	"0"	NA	NA	NA	NA	NA	NA	NA	NA	NA	"1"	NA	NA	NA	NA	NA	NA	NA	"0"	"0"	"0"	NA	"02/14/18 14:50:31"	"Executes Python code"	"yes"	""	"lineup_videoVIPER_W.osexp"	"C:/Users/standalone/Desktop/Wednesday 1402 room 1.26 VIPER"	"no"	"mono"	"no"	"24"	"no"	"black"	"no"	"yes"	NA	"768"	NA	NA	NA	NA	"legacy"	"0"	"0"	"C:/Users/standalone/Desktop/Wednesday 1402 room 1.26 VIPER/subject-70.csv"	NA	NA	NA	NA	NA	NA	NA	"xpyriment"	"Jazzy James"	"3.1.6"	"0"	"2"	"legacy"	"1024"	"2"	"48000"	"-16"	"experiment"	"70"	"even"	"legacy"	NA	"absent"	"present"	NA	NA	NA	NA	NA	NA	NA	NA	NA	NA	NA	NA	"2288"	NA	NA	NA	NA	NA	NA	NA	NA	NA	NA	"2290"	NA	NA	NA	NA	NA	NA	NA	"2289"	"2288"	"2289"	NA	"lineup1"	"no"	NA	"no"	"1366"
"22"	""	"white"	"no"	"xpyriment"	"legacy"	"legacy"	"0"	NA	"relative"	"0"	"0"	NA	"0"	"0"	NA	NA	NA	NA	NA	NA	"0"	"0"	"0"	"0"	NA	NA	NA	NA	NA	"0"	NA	NA	"2"	NA	"0"	"0"	NA	NA	NA	NA	"0"	"0"	"0"	NA	"02/14/18 14:50:31"	"Executes Python code"	"yes"	""	"lineup_videoVIPER_W.osexp"	"C:/Users/standalone/Desktop/Wednesday 1402 room 1.26 VIPER"	"no"	"mono"	"no"	"24"	"no"	"black"	"no"	"yes"	"male"	"768"	NA	NA	NA	NA	"legacy"	"0"	"0"	"C:/Users/standalone/Desktop/Wednesday 1402 room 1.26 VIPER/subject-70.csv"	NA	"2"	"4"	"5"	"3"	"1"	"7"	"xpyriment"	"Jazzy James"	"3.1.6"	"0"	"2"	"legacy"	"1024"	"2"	"48000"	"-16"	"experiment"	"70"	"even"	"legacy"	"[target1]"	"absent"	"present"	"2357"	NA	NA	"2357"	NA	NA	NA	NA	NA	NA	NA	NA	"2288"	"2351"	"2354"	NA	NA	NA	NA	NA	NA	NA	NA	"2357"	NA	"2354"	"2357"	NA	NA	NA	NA	"2289"	"2288"	"2289"	NA	"lineup1"	"no"	NA	"no"	"1366"
"23"	""	"white"	"no"	"xpyriment"	"legacy"	"legacy"	"0"	"no"	"relative"	"0"	"0"	"0"	"0"	"0"	"0"	"0"	"0"	"0"	"0"	"0"	"0"	"0"	"0"	"0"	"0"	"0"	"0"	"0"	"0"	"0"	"0"	"0"	"4"	"0"	"0"	"0"	"0"	"0"	"0"	"0"	"0"	"0"	"0"	"0"	"02/14/18 14:50:31"	"Executes Python code"	"yes"	""	"lineup_videoVIPER_W.osexp"	"C:/Users/standalone/Desktop/Wednesday 1402 room 1.26 VIPER"	"no"	"mono"	"no"	"24"	"no"	"black"	"no"	"yes"	"male"	"768"	"No"	"no"	"no"	"no"	"legacy"	"0"	"0"	"C:/Users/standalone/Desktop/Wednesday 1402 room 1.26 VIPER/subject-70.csv"	"[member1]"	"2"	"4"	"5"	"3"	"1"	"7"	"xpyriment"	"Jazzy James"	"3.1.6"	"0"	"2"	"legacy"	"1024"	"2"	"48000"	"-16"	"experiment"	"70"	"even"	"legacy"	"[target1]"	"absent"	"present"	"2357"	NA	NA	"2357"	NA	NA	"29992"	NA	NA	NA	NA	NA	"2288"	"2351"	"2354"	"25168"	NA	NA	"2742"	"2424"	"2398"	"2424"	"2742"	"29992"	NA	"2354"	"2357"	NA	NA	NA	NA	"2289"	"2288"	"2289"	"7360"	"lineup1"	"no"	"1"	"no"	"1366"
"24"	""	"white"	"no"	"xpyriment"	"legacy"	"legacy"	"0"	"no"	"relative"	"0"	"0"	"0"	"0"	"0"	"1"	"1"	"0"	"0"	"0"	"1"	"0"	"0"	"0"	"0"	"1"	"0"	"0"	"1"	"0"	"0"	"0"	"1"	"5"	"0"	"0"	"0"	"0"	"0"	"0"	"0"	"0"	"0"	"0"	"1"	"02/14/18 14:50:31"	"Executes Python code"	"yes"	""	"lineup_videoVIPER_W.osexp"	"C:/Users/standalone/Desktop/Wednesday 1402 room 1.26 VIPER"	"no"	"mono"	"no"	"24"	"no"	"black"	"no"	"yes"	"male"	"768"	"No"	"no"	"no"	"no"	"legacy"	"1"	"0"	"C:/Users/standalone/Desktop/Wednesday 1402 room 1.26 VIPER/subject-70.csv"	"[member2]"	"2"	"4"	"5"	"3"	"1"	"7"	"xpyriment"	"Jazzy James"	"3.1.6"	"0"	"2"	"legacy"	"1024"	"2"	"48000"	"-16"	"experiment"	"70"	"even"	"legacy"	"[target1]"	"absent"	"present"	"2357"	NA	NA	"2357"	NA	NA	"38205"	NA	NA	NA	NA	NA	"2288"	"2351"	"2354"	"35078"	NA	NA	"2742"	"2424"	"2398"	"2424"	"30240"	"38205"	NA	"2354"	"2357"	NA	NA	NA	NA	"2289"	"2288"	"2289"	"30240"	"lineup1"	"no"	"2"	"no"	"1366"
"25"	""	"white"	"no"	"xpyriment"	"legacy"	"legacy"	"0"	"no"	"relative"	"0"	"0"	"0"	"0"	"0"	"2"	"2"	"0"	"0"	"0"	"2"	"0"	"0"	"0"	"0"	"2"	"0"	"0"	"2"	"0"	"0"	"0"	"2"	"6"	"0"	"0"	"0"	"0"	"0"	"0"	"0"	"0"	"0"	"0"	"2"	"02/14/18 14:50:31"	"Executes Python code"	"yes"	""	"lineup_videoVIPER_W.osexp"	"C:/Users/standalone/Desktop/Wednesday 1402 room 1.26 VIPER"	"no"	"mono"	"no"	"24"	"no"	"black"	"no"	"yes"	"male"	"768"	"No"	"no"	"no"	"no"	"legacy"	"2"	"0"	"C:/Users/standalone/Desktop/Wednesday 1402 room 1.26 VIPER/subject-70.csv"	"[member3]"	"2"	"4"	"5"	"3"	"1"	"7"	"xpyriment"	"Jazzy James"	"3.1.6"	"0"	"2"	"legacy"	"1024"	"2"	"48000"	"-16"	"experiment"	"70"	"even"	"legacy"	"[target1]"	"absent"	"present"	"2357"	NA	NA	"2357"	NA	NA	"48766"	NA	NA	NA	NA	NA	"2288"	"2351"	"2354"	"46212"	NA	NA	"2742"	"2424"	"2398"	"2424"	"38443"	"48766"	NA	"2354"	"2357"	NA	NA	NA	NA	"2289"	"2288"	"2289"	"38443"	"lineup1"	"no"	"3"	"no"	"1366"
"26"	""	"white"	"no"	"xpyriment"	"legacy"	"legacy"	"0"	"no"	"relative"	"0"	"0"	"0"	"0"	"0"	"3"	"3"	"0"	"0"	"0"	"3"	"0"	"0"	"0"	"0"	"3"	"0"	"0"	"3"	"0"	"0"	"0"	"3"	"7"	"0"	"0"	"0"	"0"	"0"	"0"	"0"	"0"	"0"	"0"	"3"	"02/14/18 14:50:31"	"Executes Python code"	"yes"	""	"lineup_videoVIPER_W.osexp"	"C:/Users/standalone/Desktop/Wednesday 1402 room 1.26 VIPER"	"no"	"mono"	"no"	"24"	"no"	"black"	"no"	"yes"	"male"	"768"	"No"	"no"	"no"	"no"	"legacy"	"3"	"0"	"C:/Users/standalone/Desktop/Wednesday 1402 room 1.26 VIPER/subject-70.csv"	"[member4]"	"2"	"4"	"5"	"3"	"1"	"7"	"xpyriment"	"Jazzy James"	"3.1.6"	"0"	"2"	"legacy"	"1024"	"2"	"48000"	"-16"	"experiment"	"70"	"even"	"legacy"	"[target1]"	"absent"	"present"	"2357"	NA	NA	"2357"	NA	NA	"53194"	NA	NA	NA	NA	NA	"2288"	"2351"	"2354"	"50756"	NA	NA	"2742"	"2424"	"2398"	"2424"	"49002"	"53194"	NA	"2354"	"2357"	NA	NA	NA	NA	"2289"	"2288"	"2289"	"49002"	"lineup1"	"no"	"4"	"no"	"1366"
"27"	""	"white"	"no"	"xpyriment"	"legacy"	"legacy"	"0"	"no"	"relative"	"0"	"0"	"0"	"0"	"0"	"4"	"4"	"0"	"0"	"0"	"4"	"0"	"0"	"0"	"0"	"4"	"0"	"0"	"4"	"0"	"0"	"0"	"4"	"8"	"0"	"0"	"0"	"0"	"0"	"0"	"0"	"0"	"0"	"0"	"4"	"02/14/18 14:50:31"	"Executes Python code"	"yes"	""	"lineup_videoVIPER_W.osexp"	"C:/Users/standalone/Desktop/Wednesday 1402 room 1.26 VIPER"	"no"	"mono"	"no"	"24"	"no"	"black"	"no"	"yes"	"male"	"768"	"No"	"no"	"no"	"no"	"legacy"	"4"	"0"	"C:/Users/standalone/Desktop/Wednesday 1402 room 1.26 VIPER/subject-70.csv"	"[member5]"	"2"	"4"	"5"	"3"	"1"	"7"	"xpyriment"	"Jazzy James"	"3.1.6"	"0"	"2"	"legacy"	"1024"	"2"	"48000"	"-16"	"experiment"	"70"	"even"	"legacy"	"[target1]"	"absent"	"present"	"2357"	NA	NA	"2357"	NA	NA	"63282"	NA	NA	NA	NA	NA	"2288"	"2351"	"2354"	"60908"	NA	NA	"2742"	"2424"	"2398"	"2424"	"53436"	"63282"	NA	"2354"	"2357"	NA	NA	NA	NA	"2289"	"2288"	"2289"	"53436"	"lineup1"	"no"	"5"	"no"	"1366"
"28"	""	"white"	"no"	"xpyriment"	"legacy"	"legacy"	"0"	"no"	"relative"	"0"	"0"	"0"	"0"	"0"	"5"	"5"	"0"	"0"	"0"	"5"	"0"	"0"	"0"	"0"	"5"	"0"	"0"	"5"	"0"	"0"	"0"	"5"	"9"	"0"	"0"	"0"	"0"	"0"	"0"	"0"	"0"	"0"	"0"	"5"	"02/14/18 14:50:31"	"Executes Python code"	"yes"	""	"lineup_videoVIPER_W.osexp"	"C:/Users/standalone/Desktop/Wednesday 1402 room 1.26 VIPER"	"no"	"mono"	"no"	"24"	"no"	"black"	"no"	"yes"	"male"	"768"	"No"	"no"	"no"	"no"	"legacy"	"5"	"0"	"C:/Users/standalone/Desktop/Wednesday 1402 room 1.26 VIPER/subject-70.csv"	"[member6]"	"2"	"4"	"5"	"3"	"1"	"7"	"xpyriment"	"Jazzy James"	"3.1.6"	"0"	"2"	"legacy"	"1024"	"2"	"48000"	"-16"	"experiment"	"70"	"even"	"legacy"	"[target1]"	"absent"	"present"	"2357"	NA	NA	"2357"	NA	NA	"76149"	NA	NA	NA	NA	NA	"2288"	"2351"	"2354"	"73971"	NA	NA	"2742"	"2424"	"2398"	"2424"	"63522"	"76149"	NA	"2354"	"2357"	NA	NA	NA	NA	"2289"	"2288"	"2289"	"63522"	"lineup1"	"no"	"6"	"no"	"1366"
"29"	""	"white"	"no"	"xpyriment"	"legacy"	"legacy"	"0"	"no"	"relative"	"0"	"0"	"0"	"0"	"0"	"5"	"5"	"0"	"0"	"0"	"5"	"0"	"0"	"0"	"0"	"5"	"0"	"0"	"5"	"0"	"0"	"0"	"5"	"9"	"0"	"0"	"0"	"0"	"0"	"0"	"0"	"0"	"0"	"0"	"5"	"02/14/18 14:50:31"	"Executes Python code"	"yes"	""	"lineup_videoVIPER_W.osexp"	"C:/Users/standalone/Desktop/Wednesday 1402 room 1.26 VIPER"	"no"	"mono"	"no"	"24"	"no"	"black"	"no"	"yes"	"male"	"768"	"No"	"No"	"no"	"No"	"legacy"	"5"	"0"	"C:/Users/standalone/Desktop/Wednesday 1402 room 1.26 VIPER/subject-70.csv"	"[member6]"	"2"	"4"	"5"	"3"	"1"	"7"	"xpyriment"	"Jazzy James"	"3.1.6"	"0"	"2"	"legacy"	"1024"	"2"	"48000"	"-16"	"experiment"	"70"	"even"	"legacy"	"[target1]"	"absent"	"present"	"2357"	NA	"82724"	"2357"	NA	NA	"76149"	"82724"	NA	"91483"	NA	NA	"2288"	"2351"	"2354"	"73971"	NA	NA	"2742"	"2424"	"2398"	"2424"	"63522"	"91484"	"76202"	"2354"	"2357"	NA	"86227"	NA	NA	"2289"	"2288"	"2289"	"63522"	"lineup1"	"no"	"6"	"no"	"1366"
"30"	""	"white"	"no"	"xpyriment"	"legacy"	"legacy"	"0"	"no"	"relative"	"3"	"3"	"0"	"3"	"3"	"5"	"5"	"0"	"0"	"0"	"5"	"0"	"0"	"0"	"1"	"5"	"0"	"0"	"5"	"0"	"1"	"0"	"5"	"12"	"0"	"1"	"3"	"0"	"0"	"0"	"0"	"0"	"0"	"0"	"5"	"02/14/18 14:50:31"	"Executes Python code"	"yes"	""	"lineup_videoVIPER_W.osexp"	"C:/Users/standalone/Desktop/Wednesday 1402 room 1.26 VIPER"	"no"	"mono"	"no"	"24"	"no"	"black"	"no"	"yes"	"female"	"768"	"No"	"No"	"no"	"No"	"legacy"	"0"	"0"	"C:/Users/standalone/Desktop/Wednesday 1402 room 1.26 VIPER/subject-70.csv"	"[member6]"	"4"	"6"	"5"	"3"	"1"	"2"	"xpyriment"	"Jazzy James"	"3.1.6"	"0"	"2"	"legacy"	"1024"	"2"	"48000"	"-16"	"experiment"	"70"	"even"	"legacy"	"[target2]"	"absent"	"present"	"2357"	"91562"	"82724"	"2357"	"91562"	NA	"76149"	"82724"	NA	"91483"	NA	NA	"2288"	"2351"	"91555"	"73971"	NA	NA	"2742"	"2424"	"2398"	"2424"	"63522"	"91562"	"76202"	"91555"	"91562"	NA	"86227"	NA	NA	"2289"	"2288"	"2289"	"63522"	"lineup1"	"no"	"6"	"no"	"1366"
"31"	""	"white"	"no"	"xpyriment"	"legacy"	"legacy"	"0"	"no"	"relative"	"3"	"3"	"0"	"3"	"3"	"5"	"5"	"0"	"0"	"0"	"5"	"0"	"0"	"0"	"1"	"5"	"0"	"0"	"5"	"0"	"1"	"0"	"5"	"12"	"0"	"1"	"3"	"0"	"0"	"0"	"0"	"0"	"0"	"0"	"5"	"02/14/18 14:50:31"	"Executes Python code"	"yes"	""	"lineup_videoVIPER_W.osexp"	"C:/Users/standalone/Desktop/Wednesday 1402 room 1.26 VIPER"	"no"	"mono"	"no"	"24"	"no"	"black"	"no"	"yes"	"female"	"768"	"No"	"No"	"no"	"No"	"legacy"	"0"	"0"	"C:/Users/standalone/Desktop/Wednesday 1402 room 1.26 VIPER/subject-70.csv"	"[member6]"	"4"	"6"	"5"	"3"	"1"	"2"	"xpyriment"	"Jazzy James"	"3.1.6"	"0"	"2"	"legacy"	"1024"	"2"	"48000"	"-16"	"experiment"	"70"	"even"	"legacy"	"[target2]"	"absent"	"present"	"2357"	"91562"	"82724"	"2357"	"91562"	NA	"76149"	"82724"	NA	"91483"	NA	NA	"2288"	"2351"	"91555"	"73971"	NA	NA	"2742"	"2424"	"2398"	"2424"	"63522"	"91601"	"76202"	"91555"	"91562"	NA	"86227"	NA	NA	"2289"	"2288"	"2289"	"63522"	"lineup1"	"no"	"6"	"no"	"1366"
"32"	""	"white"	"no"	"xpyriment"	"legacy"	"legacy"	"0"	"no"	"relative"	"3"	"3"	"0"	"3"	"3"	"5"	"5"	"0"	"0"	"0"	"5"	"0"	"0"	"0"	"1"	"5"	"0"	"0"	"5"	"0"	"1"	"0"	"5"	"12"	"0"	"1"	"3"	"0"	"0"	"0"	"0"	"0"	"0"	"0"	"5"	"02/14/18 14:50:31"	"Executes Python code"	"yes"	""	"lineup_videoVIPER_W.osexp"	"C:/Users/standalone/Desktop/Wednesday 1402 room 1.26 VIPER"	"no"	"mono"	"no"	"24"	"no"	"black"	"no"	"yes"	"female"	"768"	"No"	"No"	"no"	"No"	"legacy"	"0"	"0"	"C:/Users/standalone/Desktop/Wednesday 1402 room 1.26 VIPER/subject-70.csv"	"[member6]"	"4"	"6"	"5"	"3"	"1"	"2"	"xpyriment"	"Jazzy James"	"3.1.6"	"0"	"2"	"legacy"	"1024"	"2"	"48000"	"-16"	"experiment"	"70"	"even"	"legacy"	"[target2]"	"absent"	"present"	"2357"	"91562"	"82724"	"2357"	"91562"	NA	"76149"	"82724"	NA	"91483"	NA	NA	"2288"	"2351"	"91555"	"73971"	NA	NA	"2742"	"2424"	"2398"	"2424"	"63522"	"91636"	"76202"	"91555"	"91562"	NA	"86227"	NA	NA	"2289"	"2288"	"2289"	"63522"	"lineup1"	"no"	"6"	"no"	"1366"
"33"	""	"white"	"no"	"xpyriment"	"legacy"	"legacy"	"0"	"70"	"relative"	"3"	"3"	"1"	"3"	"3"	"6"	"6"	"1"	"1"	"1"	"6"	"0"	"0"	"0"	"1"	"6"	"1"	"1"	"6"	"1"	"1"	"1"	"6"	"14"	"1"	"1"	"3"	"1"	"1"	"1"	"1"	"0"	"0"	"0"	"6"	"02/14/18 14:50:31"	"Executes Python code"	"yes"	""	"lineup_videoVIPER_W.osexp"	"C:/Users/standalone/Desktop/Wednesday 1402 room 1.26 VIPER"	"no"	"mono"	"no"	"24"	"no"	"black"	"no"	"yes"	"female"	"768"	"Yes"	"no"	"no"	"no"	"legacy"	"0"	"0"	"C:/Users/standalone/Desktop/Wednesday 1402 room 1.26 VIPER/subject-70.csv"	"[member1]"	"4"	"6"	"5"	"3"	"1"	"2"	"xpyriment"	"Jazzy James"	"3.1.6"	"0"	"2"	"legacy"	"1024"	"2"	"48000"	"-16"	"experiment"	"70"	"even"	"legacy"	"[target2]"	"absent"	"present"	"2357"	"91562"	"82724"	"2357"	"91562"	"106602"	"100459"	"82724"	NA	"91483"	"100459"	NA	"2288"	"2351"	"91555"	"97946"	NA	NA	"91893"	"91702"	"91675"	"91702"	"91893"	"106602"	"76202"	"91555"	"91562"	NA	"86227"	NA	NA	"2289"	"2288"	"2289"	"93912"	"lineup1"	"no"	"1"	"no"	"1366"
"34"	""	"white"	"no"	"xpyriment"	"legacy"	"legacy"	"0"	"no"	"relative"	"3"	"3"	"1"	"3"	"3"	"7"	"7"	"1"	"1"	"1"	"7"	"0"	"0"	"0"	"1"	"7"	"1"	"1"	"7"	"1"	"1"	"1"	"7"	"15"	"1"	"1"	"3"	"1"	"1"	"1"	"1"	"0"	"0"	"0"	"7"	"02/14/18 14:50:31"	"Executes Python code"	"yes"	""	"lineup_videoVIPER_W.osexp"	"C:/Users/standalone/Desktop/Wednesday 1402 room 1.26 VIPER"	"no"	"mono"	"no"	"24"	"no"	"black"	"no"	"yes"	"female"	"768"	"No"	"no"	"no"	"no"	"legacy"	"1"	"0"	"C:/Users/standalone/Desktop/Wednesday 1402 room 1.26 VIPER/subject-70.csv"	"[member2]"	"4"	"6"	"5"	"3"	"1"	"2"	"xpyriment"	"Jazzy James"	"3.1.6"	"0"	"2"	"legacy"	"1024"	"2"	"48000"	"-16"	"experiment"	"70"	"even"	"legacy"	"[target2]"	"absent"	"present"	"2357"	"91562"	"82724"	"2357"	"91562"	"106602"	"111337"	"82724"	NA	"91483"	"100459"	NA	"2288"	"2351"	"91555"	"108862"	NA	NA	"91893"	"91702"	"91675"	"91702"	"106843"	"111337"	"76202"	"91555"	"91562"	NA	"86227"	NA	NA	"2289"	"2288"	"2289"	"106843"	"lineup1"	"no"	"2"	"no"	"1366"
"35"	""	"white"	"no"	"xpyriment"	"legacy"	"legacy"	"0"	"no"	"relative"	"3"	"3"	"1"	"3"	"3"	"8"	"8"	"1"	"1"	"1"	"8"	"0"	"0"	"0"	"1"	"8"	"1"	"1"	"8"	"1"	"1"	"1"	"8"	"16"	"1"	"1"	"3"	"1"	"1"	"1"	"1"	"0"	"0"	"0"	"8"	"02/14/18 14:50:31"	"Executes Python code"	"yes"	""	"lineup_videoVIPER_W.osexp"	"C:/Users/standalone/Desktop/Wednesday 1402 room 1.26 VIPER"	"no"	"mono"	"no"	"24"	"no"	"black"	"no"	"yes"	"female"	"768"	"No"	"no"	"no"	"no"	"legacy"	"2"	"0"	"C:/Users/standalone/Desktop/Wednesday 1402 room 1.26 VIPER/subject-70.csv"	"[member3]"	"4"	"6"	"5"	"3"	"1"	"2"	"xpyriment"	"Jazzy James"	"3.1.6"	"0"	"2"	"legacy"	"1024"	"2"	"48000"	"-16"	"experiment"	"70"	"even"	"legacy"	"[target2]"	"absent"	"present"	"2357"	"91562"	"82724"	"2357"	"91562"	"106602"	"116296"	"82724"	NA	"91483"	"100459"	NA	"2288"	"2351"	"91555"	"113995"	NA	NA	"91893"	"91702"	"91675"	"91702"	"111592"	"116296"	"76202"	"91555"	"91562"	NA	"86227"	NA	NA	"2289"	"2288"	"2289"	"111592"	"lineup1"	"no"	"3"	"no"	"1366"
"36"	""	"white"	"no"	"xpyriment"	"legacy"	"legacy"	"0"	"no"	"relative"	"3"	"3"	"1"	"3"	"3"	"9"	"9"	"1"	"1"	"1"	"9"	"0"	"0"	"0"	"1"	"9"	"1"	"1"	"9"	"1"	"1"	"1"	"9"	"17"	"1"	"1"	"3"	"1"	"1"	"1"	"1"	"0"	"0"	"0"	"9"	"02/14/18 14:50:31"	"Executes Python code"	"yes"	""	"lineup_videoVIPER_W.osexp"	"C:/Users/standalone/Desktop/Wednesday 1402 room 1.26 VIPER"	"no"	"mono"	"no"	"24"	"no"	"black"	"no"	"yes"	"female"	"768"	"No"	"no"	"no"	"no"	"legacy"	"3"	"0"	"C:/Users/standalone/Desktop/Wednesday 1402 room 1.26 VIPER/subject-70.csv"	"[member4]"	"4"	"6"	"5"	"3"	"1"	"2"	"xpyriment"	"Jazzy James"	"3.1.6"	"0"	"2"	"legacy"	"1024"	"2"	"48000"	"-16"	"experiment"	"70"	"even"	"legacy"	"[target2]"	"absent"	"present"	"2357"	"91562"	"82724"	"2357"	"91562"	"106602"	"120872"	"82724"	NA	"91483"	"100459"	NA	"2288"	"2351"	"91555"	"118582"	NA	NA	"91893"	"91702"	"91675"	"91702"	"116534"	"120872"	"76202"	"91555"	"91562"	NA	"86227"	NA	NA	"2289"	"2288"	"2289"	"116535"	"lineup1"	"no"	"4"	"no"	"1366"
"37"	""	"white"	"no"	"xpyriment"	"legacy"	"legacy"	"0"	"no"	"relative"	"3"	"3"	"1"	"3"	"3"	"10"	"10"	"1"	"1"	"1"	"10"	"0"	"0"	"0"	"1"	"10"	"1"	"1"	"10"	"1"	"1"	"1"	"10"	"18"	"1"	"1"	"3"	"1"	"1"	"1"	"1"	"0"	"0"	"0"	"10"	"02/14/18 14:50:31"	"Executes Python code"	"yes"	""	"lineup_videoVIPER_W.osexp"	"C:/Users/standalone/Desktop/Wednesday 1402 room 1.26 VIPER"	"no"	"mono"	"no"	"24"	"no"	"black"	"no"	"yes"	"female"	"768"	"No"	"no"	"no"	"no"	"legacy"	"4"	"0"	"C:/Users/standalone/Desktop/Wednesday 1402 room 1.26 VIPER/subject-70.csv"	"[member5]"	"4"	"6"	"5"	"3"	"1"	"2"	"xpyriment"	"Jazzy James"	"3.1.6"	"0"	"2"	"legacy"	"1024"	"2"	"48000"	"-16"	"experiment"	"70"	"even"	"legacy"	"[target2]"	"absent"	"present"	"2357"	"91562"	"82724"	"2357"	"91562"	"106602"	"124244"	"82724"	NA	"91483"	"100459"	NA	"2288"	"2351"	"91555"	"122364"	NA	NA	"91893"	"91702"	"91675"	"91702"	"121115"	"124244"	"76202"	"91555"	"91562"	NA	"86227"	NA	NA	"2289"	"2288"	"2289"	"121115"	"lineup1"	"no"	"5"	"no"	"1366"
"38"	""	"white"	"no"	"xpyriment"	"legacy"	"legacy"	"0"	"no"	"relative"	"3"	"3"	"1"	"3"	"3"	"11"	"11"	"1"	"1"	"1"	"11"	"0"	"0"	"0"	"1"	"11"	"1"	"1"	"11"	"1"	"1"	"1"	"11"	"19"	"1"	"1"	"3"	"1"	"1"	"1"	"1"	"0"	"0"	"0"	"11"	"02/14/18 14:50:31"	"Executes Python code"	"yes"	""	"lineup_videoVIPER_W.osexp"	"C:/Users/standalone/Desktop/Wednesday 1402 room 1.26 VIPER"	"no"	"mono"	"no"	"24"	"no"	"black"	"no"	"yes"	"female"	"768"	"No"	"no"	"no"	"no"	"legacy"	"5"	"0"	"C:/Users/standalone/Desktop/Wednesday 1402 room 1.26 VIPER/subject-70.csv"	"[member6]"	"4"	"6"	"5"	"3"	"1"	"2"	"xpyriment"	"Jazzy James"	"3.1.6"	"0"	"2"	"legacy"	"1024"	"2"	"48000"	"-16"	"experiment"	"70"	"even"	"legacy"	"[target2]"	"absent"	"present"	"2357"	"91562"	"82724"	"2357"	"91562"	"106602"	"128133"	"82724"	NA	"91483"	"100459"	NA	"2288"	"2351"	"91555"	"126073"	NA	NA	"91893"	"91702"	"91675"	"91702"	"124495"	"128133"	"76202"	"91555"	"91562"	NA	"86227"	NA	NA	"2289"	"2288"	"2289"	"124495"	"lineup1"	"no"	"6"	"no"	"1366"
"39"	""	"white"	"no"	"xpyriment"	"legacy"	"legacy"	"0"	"no"	"relative"	"3"	"3"	"1"	"3"	"3"	"11"	"11"	"1"	"1"	"1"	"11"	"0"	"0"	"0"	"1"	"11"	"1"	"1"	"11"	"1"	"1"	"1"	"11"	"19"	"1"	"1"	"3"	"1"	"1"	"1"	"1"	"0"	"0"	"0"	"11"	"02/14/18 14:50:31"	"Executes Python code"	"yes"	""	"lineup_videoVIPER_W.osexp"	"C:/Users/standalone/Desktop/Wednesday 1402 room 1.26 VIPER"	"no"	"mono"	"no"	"24"	"no"	"black"	"no"	"yes"	"female"	"768"	"No"	"Yes"	"One"	"No"	"legacy"	"5"	"0"	"C:/Users/standalone/Desktop/Wednesday 1402 room 1.26 VIPER/subject-70.csv"	"[member6]"	"4"	"6"	"5"	"3"	"1"	"2"	"xpyriment"	"Jazzy James"	"3.1.6"	"0"	"2"	"legacy"	"1024"	"2"	"48000"	"-16"	"experiment"	"70"	"even"	"legacy"	"[target2]"	"absent"	"present"	"2357"	"91562"	"134344"	"2357"	"91562"	"106602"	"128133"	"130635"	"134344"	"143179"	"100459"	NA	"2288"	"2351"	"91555"	"126073"	NA	NA	"91893"	"91702"	"91675"	"91702"	"124495"	"143179"	"128175"	"91555"	"91562"	"130635"	"139179"	NA	NA	"2289"	"2288"	"2289"	"124495"	"lineup1"	"no"	"6"	"no"	"1366"
"40"	""	"white"	"no"	"xpyriment"	"legacy"	"legacy"	"0"	"no"	"relative"	"3"	"3"	"1"	"3"	"3"	"11"	"11"	"1"	"1"	"1"	"11"	"0"	"0"	"0"	"1"	"11"	"1"	"1"	"11"	"1"	"1"	"1"	"11"	"19"	"1"	"1"	"3"	"1"	"1"	"1"	"1"	"0"	"0"	"0"	"11"	"02/14/18 14:50:31"	"Executes Python code"	"yes"	""	"lineup_videoVIPER_W.osexp"	"C:/Users/standalone/Desktop/Wednesday 1402 room 1.26 VIPER"	"no"	"mono"	"no"	"24"	"no"	"black"	"no"	"yes"	"female"	"768"	"No"	"Yes"	"One"	"No"	"legacy"	"5"	"0"	"C:/Users/standalone/Desktop/Wednesday 1402 room 1.26 VIPER/subject-70.csv"	"[member6]"	"4"	"6"	"5"	"3"	"1"	"2"	"xpyriment"	"Jazzy James"	"3.1.6"	"0"	"2"	"legacy"	"1024"	"2"	"48000"	"-16"	"experiment"	"70"	"even"	"legacy"	"[target2]"	"absent"	"present"	"2357"	"91562"	"134344"	"2357"	"91562"	"106602"	"128133"	"130635"	"134344"	"143179"	"100459"	"143244"	"2288"	"2351"	"91555"	"126073"	NA	NA	"91893"	"91702"	"91675"	"91702"	"124495"	"145038"	"128175"	"91555"	"91562"	"130635"	"139179"	NA	NA	"2289"	"2288"	"2289"	"124495"	"lineup1"	"no"	"6"	"no"	"1366"
"41"	""	"white"	"no"	"xpyriment"	"legacy"	"legacy"	"0"	NA	"relative"	NA	NA	NA	NA	NA	NA	NA	NA	NA	NA	NA	"0"	"0"	"0"	NA	NA	NA	NA	NA	NA	NA	NA	NA	"1"	NA	NA	NA	NA	NA	NA	NA	"0"	"0"	"0"	NA	"02/14/18 14:44:45"	"Executes Python code"	"yes"	""	"lineup_videoVIPER_W.osexp"	"C:/Users/standalone/Desktop/Wednesday 1402 room 1.27 VIPER"	"no"	"mono"	"no"	"24"	"no"	"black"	"no"	"yes"	NA	"768"	NA	NA	NA	NA	"legacy"	"0"	"0"	"C:/Users/standalone/Desktop/Wednesday 1402 room 1.27 VIPER/subject-71.csv"	NA	NA	NA	NA	NA	NA	NA	"xpyriment"	"Jazzy James"	"3.1.6"	"0"	"2"	"legacy"	"1024"	"2"	"48000"	"-16"	"experiment"	"71"	"odd"	"legacy"	NA	"absent"	"present"	NA	NA	NA	NA	NA	NA	NA	NA	NA	NA	NA	NA	"3563"	NA	NA	NA	NA	NA	NA	NA	NA	NA	NA	"3566"	NA	NA	NA	NA	NA	NA	NA	"3566"	"3565"	"3566"	NA	"lineup1"	"no"	NA	"no"	"1366"
"42"	""	"white"	"no"	"xpyriment"	"legacy"	"legacy"	"0"	NA	"relative"	"1"	"1"	NA	"1"	"1"	NA	NA	NA	NA	NA	NA	"0"	"0"	"0"	"0"	NA	NA	NA	NA	NA	"0"	NA	NA	"3"	NA	"0"	"1"	NA	NA	NA	NA	"0"	"0"	"0"	NA	"02/14/18 14:44:45"	"Executes Python code"	"yes"	""	"lineup_videoVIPER_W.osexp"	"C:/Users/standalone/Desktop/Wednesday 1402 room 1.27 VIPER"	"no"	"mono"	"no"	"24"	"no"	"black"	"no"	"yes"	"female"	"768"	NA	NA	NA	NA	"legacy"	"0"	"0"	"C:/Users/standalone/Desktop/Wednesday 1402 room 1.27 VIPER/subject-71.csv"	NA	"3"	"1"	"2"	"6"	"4"	"5"	"xpyriment"	"Jazzy James"	"3.1.6"	"0"	"2"	"legacy"	"1024"	"2"	"48000"	"-16"	"experiment"	"71"	"odd"	"legacy"	"[target2]"	"absent"	"present"	NA	"3640"	NA	NA	"3640"	NA	NA	NA	NA	NA	NA	NA	"3563"	"3630"	"3634"	NA	NA	NA	NA	NA	NA	NA	NA	"3640"	NA	"3634"	"3640"	NA	NA	NA	NA	"3566"	"3565"	"3566"	NA	"lineup1"	"no"	NA	"no"	"1366"
"43"	""	"white"	"no"	"xpyriment"	"legacy"	"legacy"	"0"	NA	"relative"	"1"	"1"	NA	"1"	"1"	NA	NA	NA	NA	NA	NA	"0"	"0"	"0"	"0"	NA	NA	NA	NA	NA	"0"	NA	NA	"3"	NA	"0"	"1"	NA	NA	NA	NA	"0"	"0"	"0"	NA	"02/14/18 14:44:45"	"Executes Python code"	"yes"	""	"lineup_videoVIPER_W.osexp"	"C:/Users/standalone/Desktop/Wednesday 1402 room 1.27 VIPER"	"no"	"mono"	"no"	"24"	"no"	"black"	"no"	"yes"	"female"	"768"	NA	NA	NA	NA	"legacy"	"0"	"0"	"C:/Users/standalone/Desktop/Wednesday 1402 room 1.27 VIPER/subject-71.csv"	NA	"3"	"1"	"2"	"6"	"4"	"5"	"xpyriment"	"Jazzy James"	"3.1.6"	"0"	"2"	"legacy"	"1024"	"2"	"48000"	"-16"	"experiment"	"71"	"odd"	"legacy"	"[target2]"	"absent"	"present"	NA	"3640"	NA	NA	"3640"	NA	NA	NA	NA	NA	NA	NA	"3563"	"3630"	"3634"	NA	NA	NA	NA	NA	NA	NA	NA	"3674"	NA	"3634"	"3640"	NA	NA	NA	NA	"3566"	"3565"	"3566"	NA	"lineup1"	"no"	NA	"no"	"1366"
"44"	""	"white"	"no"	"xpyriment"	"legacy"	"legacy"	"0"	"no"	"relative"	"1"	"1"	"0"	"1"	"1"	"0"	"0"	"0"	"0"	"0"	"0"	"0"	"0"	"0"	"0"	"0"	"0"	"0"	"0"	"0"	"0"	"0"	"0"	"5"	"0"	"0"	"1"	"0"	"0"	"0"	"0"	"0"	"0"	"0"	"0"	"02/14/18 14:44:45"	"Executes Python code"	"yes"	""	"lineup_videoVIPER_W.osexp"	"C:/Users/standalone/Desktop/Wednesday 1402 room 1.27 VIPER"	"no"	"mono"	"no"	"24"	"no"	"black"	"no"	"yes"	"female"	"768"	"No"	"no"	"no"	"no"	"legacy"	"0"	"0"	"C:/Users/standalone/Desktop/Wednesday 1402 room 1.27 VIPER/subject-71.csv"	"[member1]"	"3"	"1"	"2"	"6"	"4"	"5"	"xpyriment"	"Jazzy James"	"3.1.6"	"0"	"2"	"legacy"	"1024"	"2"	"48000"	"-16"	"experiment"	"71"	"odd"	"legacy"	"[target2]"	"absent"	"present"	NA	"3640"	NA	NA	"3640"	NA	"77855"	NA	NA	NA	NA	NA	"3563"	"3630"	"3634"	"73994"	NA	NA	"4112"	"3739"	"3709"	"3739"	"4112"	"77855"	NA	"3634"	"3640"	NA	NA	NA	NA	"3566"	"3565"	"3566"	"62800"	"lineup1"	"no"	"1"	"no"	"1366"
"45"	""	"white"	"no"	"xpyriment"	"legacy"	"legacy"	"0"	"no"	"relative"	"1"	"1"	"0"	"1"	"1"	"1"	"1"	"0"	"0"	"0"	"1"	"0"	"0"	"0"	"0"	"1"	"0"	"0"	"1"	"0"	"0"	"0"	"1"	"6"	"0"	"0"	"1"	"0"	"0"	"0"	"0"	"0"	"0"	"0"	"1"	"02/14/18 14:44:45"	"Executes Python code"	"yes"	""	"lineup_videoVIPER_W.osexp"	"C:/Users/standalone/Desktop/Wednesday 1402 room 1.27 VIPER"	"no"	"mono"	"no"	"24"	"no"	"black"	"no"	"yes"	"female"	"768"	"No"	"no"	"no"	"no"	"legacy"	"1"	"0"	"C:/Users/standalone/Desktop/Wednesday 1402 room 1.27 VIPER/subject-71.csv"	"[member2]"	"3"	"1"	"2"	"6"	"4"	"5"	"xpyriment"	"Jazzy James"	"3.1.6"	"0"	"2"	"legacy"	"1024"	"2"	"48000"	"-16"	"experiment"	"71"	"odd"	"legacy"	"[target2]"	"absent"	"present"	NA	"3640"	NA	NA	"3640"	NA	"92151"	NA	NA	NA	NA	NA	"3563"	"3630"	"3634"	"88490"	NA	NA	"4112"	"3739"	"3709"	"3739"	"78148"	"92151"	NA	"3634"	"3640"	NA	NA	NA	NA	"3566"	"3565"	"3566"	"78148"	"lineup1"	"no"	"2"	"no"	"1366"
"46"	""	"white"	"no"	"xpyriment"	"legacy"	"legacy"	"0"	"no"	"relative"	"1"	"1"	"0"	"1"	"1"	"2"	"2"	"0"	"0"	"0"	"2"	"0"	"0"	"0"	"0"	"2"	"0"	"0"	"2"	"0"	"0"	"0"	"2"	"7"	"0"	"0"	"1"	"0"	"0"	"0"	"0"	"0"	"0"	"0"	"2"	"02/14/18 14:44:45"	"Executes Python code"	"yes"	""	"lineup_videoVIPER_W.osexp"	"C:/Users/standalone/Desktop/Wednesday 1402 room 1.27 VIPER"	"no"	"mono"	"no"	"24"	"no"	"black"	"no"	"yes"	"female"	"768"	"No"	"no"	"no"	"no"	"legacy"	"2"	"0"	"C:/Users/standalone/Desktop/Wednesday 1402 room 1.27 VIPER/subject-71.csv"	"[member3]"	"3"	"1"	"2"	"6"	"4"	"5"	"xpyriment"	"Jazzy James"	"3.1.6"	"0"	"2"	"legacy"	"1024"	"2"	"48000"	"-16"	"experiment"	"71"	"odd"	"legacy"	"[target2]"	"absent"	"present"	NA	"3640"	NA	NA	"3640"	NA	"108897"	NA	NA	NA	NA	NA	"3563"	"3630"	"3634"	"102463"	NA	NA	"4112"	"3739"	"3709"	"3739"	"92432"	"108897"	NA	"3634"	"3640"	NA	NA	NA	NA	"3566"	"3565"	"3566"	"92432"	"lineup1"	"no"	"3"	"no"	"1366"
"47"	""	"white"	"no"	"xpyriment"	"legacy"	"legacy"	"0"	"no"	"relative"	"1"	"1"	"0"	"1"	"1"	"3"	"3"	"0"	"0"	"0"	"3"	"0"	"0"	"0"	"0"	"3"	"0"	"0"	"3"	"0"	"0"	"0"	"3"	"8"	"0"	"0"	"1"	"0"	"0"	"0"	"0"	"0"	"0"	"0"	"3"	"02/14/18 14:44:45"	"Executes Python code"	"yes"	""	"lineup_videoVIPER_W.osexp"	"C:/Users/standalone/Desktop/Wednesday 1402 room 1.27 VIPER"	"no"	"mono"	"no"	"24"	"no"	"black"	"no"	"yes"	"female"	"768"	"No"	"no"	"no"	"no"	"legacy"	"3"	"0"	"C:/Users/standalone/Desktop/Wednesday 1402 room 1.27 VIPER/subject-71.csv"	"[member4]"	"3"	"1"	"2"	"6"	"4"	"5"	"xpyriment"	"Jazzy James"	"3.1.6"	"0"	"2"	"legacy"	"1024"	"2"	"48000"	"-16"	"experiment"	"71"	"odd"	"legacy"	"[target2]"	"absent"	"present"	NA	"3640"	NA	NA	"3640"	NA	"129384"	NA	NA	NA	NA	NA	"3563"	"3630"	"3634"	"122173"	NA	NA	"4112"	"3739"	"3709"	"3739"	"109180"	"129384"	NA	"3634"	"3640"	NA	NA	NA	NA	"3566"	"3565"	"3566"	"109180"	"lineup1"	"no"	"4"	"no"	"1366"
"48"	""	"white"	"no"	"xpyriment"	"legacy"	"legacy"	"0"	"no"	"relative"	"1"	"1"	"0"	"1"	"1"	"4"	"4"	"0"	"0"	"0"	"4"	"0"	"0"	"0"	"0"	"4"	"0"	"0"	"4"	"0"	"0"	"0"	"4"	"9"	"0"	"0"	"1"	"0"	"0"	"0"	"0"	"0"	"0"	"0"	"4"	"02/14/18 14:44:45"	"Executes Python code"	"yes"	""	"lineup_videoVIPER_W.osexp"	"C:/Users/standalone/Desktop/Wednesday 1402 room 1.27 VIPER"	"no"	"mono"	"no"	"24"	"no"	"black"	"no"	"yes"	"female"	"768"	"No"	"no"	"no"	"no"	"legacy"	"4"	"0"	"C:/Users/standalone/Desktop/Wednesday 1402 room 1.27 VIPER/subject-71.csv"	"[member5]"	"3"	"1"	"2"	"6"	"4"	"5"	"xpyriment"	"Jazzy James"	"3.1.6"	"0"	"2"	"legacy"	"1024"	"2"	"48000"	"-16"	"experiment"	"71"	"odd"	"legacy"	"[target2]"	"absent"	"present"	NA	"3640"	NA	NA	"3640"	NA	"142736"	NA	NA	NA	NA	NA	"3563"	"3630"	"3634"	"140271"	NA	NA	"4112"	"3739"	"3709"	"3739"	"129672"	"142736"	NA	"3634"	"3640"	NA	NA	NA	NA	"3566"	"3565"	"3566"	"129672"	"lineup1"	"no"	"5"	"no"	"1366"
"49"	""	"white"	"no"	"xpyriment"	"legacy"	"legacy"	"0"	"no"	"relative"	"1"	"1"	"0"	"1"	"1"	"5"	"5"	"0"	"0"	"0"	"5"	"0"	"0"	"0"	"0"	"5"	"0"	"0"	"5"	"0"	"0"	"0"	"5"	"10"	"0"	"0"	"1"	"0"	"0"	"0"	"0"	"0"	"0"	"0"	"5"	"02/14/18 14:44:45"	"Executes Python code"	"yes"	""	"lineup_videoVIPER_W.osexp"	"C:/Users/standalone/Desktop/Wednesday 1402 room 1.27 VIPER"	"no"	"mono"	"no"	"24"	"no"	"black"	"no"	"yes"	"female"	"768"	"No"	"no"	"no"	"no"	"legacy"	"5"	"0"	"C:/Users/standalone/Desktop/Wednesday 1402 room 1.27 VIPER/subject-71.csv"	"[member6]"	"3"	"1"	"2"	"6"	"4"	"5"	"xpyriment"	"Jazzy James"	"3.1.6"	"0"	"2"	"legacy"	"1024"	"2"	"48000"	"-16"	"experiment"	"71"	"odd"	"legacy"	"[target2]"	"absent"	"present"	NA	"3640"	NA	NA	"3640"	NA	"158787"	NA	NA	NA	NA	NA	"3563"	"3630"	"3634"	"155741"	NA	NA	"4112"	"3739"	"3709"	"3739"	"143015"	"158787"	NA	"3634"	"3640"	NA	NA	NA	NA	"3566"	"3565"	"3566"	"143015"	"lineup1"	"no"	"6"	"no"	"1366"
"50"	""	"white"	"no"	"xpyriment"	"legacy"	"legacy"	"0"	"no"	"relative"	"1"	"1"	"0"	"1"	"1"	"5"	"5"	"0"	"0"	"0"	"5"	"0"	"0"	"0"	"0"	"5"	"0"	"0"	"5"	"0"	"0"	"0"	"5"	"10"	"0"	"0"	"1"	"0"	"0"	"0"	"0"	"0"	"0"	"0"	"5"	"02/14/18 14:44:45"	"Executes Python code"	"yes"	""	"lineup_videoVIPER_W.osexp"	"C:/Users/standalone/Desktop/Wednesday 1402 room 1.27 VIPER"	"no"	"mono"	"no"	"24"	"no"	"black"	"no"	"yes"	"female"	"768"	"No"	"No"	"no"	"No"	"legacy"	"5"	"0"	"C:/Users/standalone/Desktop/Wednesday 1402 room 1.27 VIPER/subject-71.csv"	"[member6]"	"3"	"1"	"2"	"6"	"4"	"5"	"xpyriment"	"Jazzy James"	"3.1.6"	"0"	"2"	"legacy"	"1024"	"2"	"48000"	"-16"	"experiment"	"71"	"odd"	"legacy"	"[target2]"	"absent"	"present"	NA	"3640"	"163582"	NA	"3640"	NA	"158787"	"163582"	NA	"169452"	NA	NA	"3563"	"3630"	"3634"	"155741"	NA	NA	"4112"	"3739"	"3709"	"3739"	"143015"	"169452"	"158840"	"3634"	"3640"	NA	"167099"	NA	NA	"3566"	"3565"	"3566"	"143015"	"lineup1"	"no"	"6"	"no"	"1366"
"51"	""	"white"	"no"	"xpyriment"	"legacy"	"legacy"	"0"	"no"	"relative"	"2"	"2"	"0"	"2"	"2"	"5"	"5"	"0"	"0"	"0"	"5"	"0"	"0"	"0"	"1"	"5"	"0"	"0"	"5"	"0"	"1"	"0"	"5"	"11"	"0"	"1"	"2"	"0"	"0"	"0"	"0"	"0"	"0"	"0"	"5"	"02/14/18 14:44:45"	"Executes Python code"	"yes"	""	"lineup_videoVIPER_W.osexp"	"C:/Users/standalone/Desktop/Wednesday 1402 room 1.27 VIPER"	"no"	"mono"	"no"	"24"	"no"	"black"	"no"	"yes"	"male"	"768"	"No"	"No"	"no"	"No"	"legacy"	"0"	"0"	"C:/Users/standalone/Desktop/Wednesday 1402 room 1.27 VIPER/subject-71.csv"	"[member6]"	"5"	"2"	"4"	"7"	"3"	"1"	"xpyriment"	"Jazzy James"	"3.1.6"	"0"	"2"	"legacy"	"1024"	"2"	"48000"	"-16"	"experiment"	"71"	"odd"	"legacy"	"[target1]"	"absent"	"present"	"169521"	"3640"	"163582"	"169521"	"3640"	NA	"158787"	"163582"	NA	"169452"	NA	NA	"3563"	"3630"	"169518"	"155741"	NA	NA	"4112"	"3739"	"3709"	"3739"	"143015"	"169521"	"158840"	"169518"	"169521"	NA	"167099"	NA	NA	"3566"	"3565"	"3566"	"143015"	"lineup1"	"no"	"6"	"no"	"1366"
"52"	""	"white"	"no"	"xpyriment"	"legacy"	"legacy"	"0"	"no"	"relative"	"2"	"2"	"1"	"2"	"2"	"6"	"6"	"1"	"1"	"1"	"6"	"0"	"0"	"0"	"1"	"6"	"1"	"1"	"6"	"1"	"1"	"1"	"6"	"13"	"1"	"1"	"2"	"1"	"1"	"1"	"1"	"0"	"0"	"0"	"6"	"02/14/18 14:44:45"	"Executes Python code"	"yes"	""	"lineup_videoVIPER_W.osexp"	"C:/Users/standalone/Desktop/Wednesday 1402 room 1.27 VIPER"	"no"	"mono"	"no"	"24"	"no"	"black"	"no"	"yes"	"male"	"768"	"No"	"no"	"no"	"no"	"legacy"	"0"	"0"	"C:/Users/standalone/Desktop/Wednesday 1402 room 1.27 VIPER/subject-71.csv"	"[member1]"	"5"	"2"	"4"	"7"	"3"	"1"	"xpyriment"	"Jazzy James"	"3.1.6"	"0"	"2"	"legacy"	"1024"	"2"	"48000"	"-16"	"experiment"	"71"	"odd"	"legacy"	"[target1]"	"absent"	"present"	"169521"	"3640"	"163582"	"169521"	"3640"	NA	"186093"	"163582"	NA	"169452"	NA	NA	"3563"	"3630"	"169518"	"183624"	NA	NA	"169816"	"169590"	"169560"	"169589"	"169816"	"186093"	"158840"	"169518"	"169521"	NA	"167099"	NA	NA	"3566"	"3565"	"3566"	"172805"	"lineup1"	"no"	"1"	"no"	"1366"
"53"	""	"white"	"no"	"xpyriment"	"legacy"	"legacy"	"0"	"no"	"relative"	"2"	"2"	"1"	"2"	"2"	"7"	"7"	"1"	"1"	"1"	"7"	"0"	"0"	"0"	"1"	"7"	"1"	"1"	"7"	"1"	"1"	"1"	"7"	"14"	"1"	"1"	"2"	"1"	"1"	"1"	"1"	"0"	"0"	"0"	"7"	"02/14/18 14:44:45"	"Executes Python code"	"yes"	""	"lineup_videoVIPER_W.osexp"	"C:/Users/standalone/Desktop/Wednesday 1402 room 1.27 VIPER"	"no"	"mono"	"no"	"24"	"no"	"black"	"no"	"yes"	"male"	"768"	"No"	"no"	"no"	"no"	"legacy"	"1"	"0"	"C:/Users/standalone/Desktop/Wednesday 1402 room 1.27 VIPER/subject-71.csv"	"[member2]"	"5"	"2"	"4"	"7"	"3"	"1"	"xpyriment"	"Jazzy James"	"3.1.6"	"0"	"2"	"legacy"	"1024"	"2"	"48000"	"-16"	"experiment"	"71"	"odd"	"legacy"	"[target1]"	"absent"	"present"	"169521"	"3640"	"163582"	"169521"	"3640"	NA	"198881"	"163582"	NA	"169452"	NA	NA	"3563"	"3630"	"169518"	"196207"	NA	NA	"169816"	"169590"	"169560"	"169589"	"186375"	"198881"	"158840"	"169518"	"169521"	NA	"167099"	NA	NA	"3566"	"3565"	"3566"	"186375"	"lineup1"	"no"	"2"	"no"	"1366"
"54"	""	"white"	"no"	"xpyriment"	"legacy"	"legacy"	"0"	"no"	"relative"	"2"	"2"	"1"	"2"	"2"	"8"	"8"	"1"	"1"	"1"	"8"	"0"	"0"	"0"	"1"	"8"	"1"	"1"	"8"	"1"	"1"	"1"	"8"	"15"	"1"	"1"	"2"	"1"	"1"	"1"	"1"	"0"	"0"	"0"	"8"	"02/14/18 14:44:45"	"Executes Python code"	"yes"	""	"lineup_videoVIPER_W.osexp"	"C:/Users/standalone/Desktop/Wednesday 1402 room 1.27 VIPER"	"no"	"mono"	"no"	"24"	"no"	"black"	"no"	"yes"	"male"	"768"	"No"	"no"	"no"	"no"	"legacy"	"2"	"0"	"C:/Users/standalone/Desktop/Wednesday 1402 room 1.27 VIPER/subject-71.csv"	"[member3]"	"5"	"2"	"4"	"7"	"3"	"1"	"xpyriment"	"Jazzy James"	"3.1.6"	"0"	"2"	"legacy"	"1024"	"2"	"48000"	"-16"	"experiment"	"71"	"odd"	"legacy"	"[target1]"	"absent"	"present"	"169521"	"3640"	"163582"	"169521"	"3640"	NA	"208225"	"163582"	NA	"169452"	NA	NA	"3563"	"3630"	"169518"	"205960"	NA	NA	"169816"	"169590"	"169560"	"169589"	"199165"	"208225"	"158840"	"169518"	"169521"	NA	"167099"	NA	NA	"3566"	"3565"	"3566"	"199165"	"lineup1"	"no"	"3"	"no"	"1366"
"55"	""	"white"	"no"	"xpyriment"	"legacy"	"legacy"	"0"	"no"	"relative"	"2"	"2"	"1"	"2"	"2"	"9"	"9"	"1"	"1"	"1"	"9"	"0"	"0"	"0"	"1"	"9"	"1"	"1"	"9"	"1"	"1"	"1"	"9"	"16"	"1"	"1"	"2"	"1"	"1"	"1"	"1"	"0"	"0"	"0"	"9"	"02/14/18 14:44:45"	"Executes Python code"	"yes"	""	"lineup_videoVIPER_W.osexp"	"C:/Users/standalone/Desktop/Wednesday 1402 room 1.27 VIPER"	"no"	"mono"	"no"	"24"	"no"	"black"	"no"	"yes"	"male"	"768"	"No"	"no"	"no"	"no"	"legacy"	"3"	"0"	"C:/Users/standalone/Desktop/Wednesday 1402 room 1.27 VIPER/subject-71.csv"	"[member4]"	"5"	"2"	"4"	"7"	"3"	"1"	"xpyriment"	"Jazzy James"	"3.1.6"	"0"	"2"	"legacy"	"1024"	"2"	"48000"	"-16"	"experiment"	"71"	"odd"	"legacy"	"[target1]"	"absent"	"present"	"169521"	"3640"	"163582"	"169521"	"3640"	NA	"220458"	"163582"	NA	"169452"	NA	NA	"3563"	"3630"	"169518"	"218000"	NA	NA	"169816"	"169590"	"169560"	"169589"	"208516"	"220458"	"158840"	"169518"	"169521"	NA	"167099"	NA	NA	"3566"	"3565"	"3566"	"208517"	"lineup1"	"no"	"4"	"no"	"1366"
"56"	""	"white"	"no"	"xpyriment"	"legacy"	"legacy"	"0"	"no"	"relative"	"2"	"2"	"1"	"2"	"2"	"10"	"10"	"1"	"1"	"1"	"10"	"0"	"0"	"0"	"1"	"10"	"1"	"1"	"10"	"1"	"1"	"1"	"10"	"17"	"1"	"1"	"2"	"1"	"1"	"1"	"1"	"0"	"0"	"0"	"10"	"02/14/18 14:44:45"	"Executes Python code"	"yes"	""	"lineup_videoVIPER_W.osexp"	"C:/Users/standalone/Desktop/Wednesday 1402 room 1.27 VIPER"	"no"	"mono"	"no"	"24"	"no"	"black"	"no"	"yes"	"male"	"768"	"No"	"no"	"no"	"no"	"legacy"	"4"	"0"	"C:/Users/standalone/Desktop/Wednesday 1402 room 1.27 VIPER/subject-71.csv"	"[member5]"	"5"	"2"	"4"	"7"	"3"	"1"	"xpyriment"	"Jazzy James"	"3.1.6"	"0"	"2"	"legacy"	"1024"	"2"	"48000"	"-16"	"experiment"	"71"	"odd"	"legacy"	"[target1]"	"absent"	"present"	"169521"	"3640"	"163582"	"169521"	"3640"	NA	"233837"	"163582"	NA	"169452"	NA	NA	"3563"	"3630"	"169518"	"231191"	NA	NA	"169816"	"169590"	"169560"	"169589"	"220721"	"233837"	"158840"	"169518"	"169521"	NA	"167099"	NA	NA	"3566"	"3565"	"3566"	"220721"	"lineup1"	"no"	"5"	"no"	"1366"
"57"	""	"white"	"no"	"xpyriment"	"legacy"	"legacy"	"0"	"10"	"relative"	"2"	"2"	"1"	"2"	"2"	"11"	"11"	"1"	"1"	"1"	"11"	"0"	"0"	"0"	"1"	"11"	"1"	"1"	"11"	"1"	"1"	"1"	"11"	"18"	"1"	"1"	"2"	"1"	"1"	"1"	"1"	"0"	"0"	"0"	"11"	"02/14/18 14:44:45"	"Executes Python code"	"yes"	""	"lineup_videoVIPER_W.osexp"	"C:/Users/standalone/Desktop/Wednesday 1402 room 1.27 VIPER"	"no"	"mono"	"no"	"24"	"no"	"black"	"no"	"yes"	"male"	"768"	"Yes"	"no"	"no"	"no"	"legacy"	"5"	"0"	"C:/Users/standalone/Desktop/Wednesday 1402 room 1.27 VIPER/subject-71.csv"	"[member6]"	"5"	"2"	"4"	"7"	"3"	"1"	"xpyriment"	"Jazzy James"	"3.1.6"	"0"	"2"	"legacy"	"1024"	"2"	"48000"	"-16"	"experiment"	"71"	"odd"	"legacy"	"[target1]"	"absent"	"present"	"169521"	"3640"	"163582"	"169521"	"3640"	"254470"	"246833"	"163582"	NA	"169452"	"246833"	NA	"3563"	"3630"	"169518"	"244372"	NA	NA	"169816"	"169590"	"169560"	"169589"	"234117"	"254470"	"158840"	"169518"	"169521"	NA	"167099"	NA	NA	"3566"	"3565"	"3566"	"234118"	"lineup1"	"no"	"6"	"no"	"1366"
"58"	""	"white"	"no"	"xpyriment"	"legacy"	"legacy"	"0"	"no"	"relative"	"2"	"2"	"2"	"2"	"2"	"12"	"12"	"2"	"2"	"2"	"12"	"0"	"0"	"0"	"1"	"12"	"2"	"2"	"12"	"2"	"1"	"2"	"12"	"20"	"2"	"1"	"2"	"2"	"2"	"2"	"2"	"0"	"0"	"0"	"12"	"02/14/18 14:44:45"	"Executes Python code"	"yes"	""	"lineup_videoVIPER_W.osexp"	"C:/Users/standalone/Desktop/Wednesday 1402 room 1.27 VIPER"	"no"	"mono"	"no"	"24"	"no"	"black"	"no"	"yes"	"male"	"768"	"No"	"no"	"no"	"no"	"legacy"	"0"	"0"	"C:/Users/standalone/Desktop/Wednesday 1402 room 1.27 VIPER/subject-71.csv"	"[member1]"	"5"	"2"	"4"	"7"	"3"	"1"	"xpyriment"	"Jazzy James"	"3.1.6"	"0"	"2"	"legacy"	"1024"	"2"	"48000"	"-16"	"experiment"	"71"	"odd"	"legacy"	"[target1]"	"absent"	"present"	"169521"	"3640"	"163582"	"169521"	"3640"	"254470"	"291317"	"258378"	"265201"	"169452"	"246833"	NA	"3563"	"3630"	"169518"	"287284"	"265201"	NA	"274559"	"274311"	"169560"	"274311"	"274559"	"291317"	"254514"	"169518"	"169521"	"258378"	"167099"	NA	"274282"	"3566"	"3565"	"3566"	"276329"	"lineup1"	"no"	"1"	"no"	"1366"
"59"	""	"white"	"no"	"xpyriment"	"legacy"	"legacy"	"0"	"no"	"relative"	"2"	"2"	"2"	"2"	"2"	"13"	"13"	"2"	"2"	"2"	"13"	"0"	"0"	"0"	"1"	"13"	"2"	"2"	"13"	"2"	"1"	"2"	"13"	"21"	"2"	"1"	"2"	"2"	"2"	"2"	"2"	"0"	"0"	"0"	"13"	"02/14/18 14:44:45"	"Executes Python code"	"yes"	""	"lineup_videoVIPER_W.osexp"	"C:/Users/standalone/Desktop/Wednesday 1402 room 1.27 VIPER"	"no"	"mono"	"no"	"24"	"no"	"black"	"no"	"yes"	"male"	"768"	"Not sure"	"no"	"no"	"no"	"legacy"	"1"	"0"	"C:/Users/standalone/Desktop/Wednesday 1402 room 1.27 VIPER/subject-71.csv"	"[member2]"	"5"	"2"	"4"	"7"	"3"	"1"	"xpyriment"	"Jazzy James"	"3.1.6"	"0"	"2"	"legacy"	"1024"	"2"	"48000"	"-16"	"experiment"	"71"	"odd"	"legacy"	"[target1]"	"absent"	"present"	"169521"	"3640"	"163582"	"169521"	"3640"	"254470"	"305290"	"258378"	"265201"	"169452"	"246833"	NA	"3563"	"3630"	"169518"	"300852"	"265201"	NA	"274559"	"274311"	"169560"	"274311"	"291589"	"305291"	"254514"	"169518"	"169521"	"258378"	"167099"	NA	"274282"	"3566"	"3565"	"3566"	"291589"	"lineup1"	"no"	"2"	"no"	"1366"
"60"	""	"white"	"no"	"xpyriment"	"legacy"	"legacy"	"0"	"no"	"relative"	"2"	"2"	"2"	"2"	"2"	"14"	"14"	"2"	"2"	"2"	"14"	"0"	"0"	"0"	"1"	"14"	"2"	"2"	"14"	"2"	"1"	"2"	"14"	"22"	"2"	"1"	"2"	"2"	"2"	"2"	"2"	"0"	"0"	"0"	"14"	"02/14/18 14:44:45"	"Executes Python code"	"yes"	""	"lineup_videoVIPER_W.osexp"	"C:/Users/standalone/Desktop/Wednesday 1402 room 1.27 VIPER"	"no"	"mono"	"no"	"24"	"no"	"black"	"no"	"yes"	"male"	"768"	"No"	"no"	"no"	"no"	"legacy"	"2"	"0"	"C:/Users/standalone/Desktop/Wednesday 1402 room 1.27 VIPER/subject-71.csv"	"[member3]"	"5"	"2"	"4"	"7"	"3"	"1"	"xpyriment"	"Jazzy James"	"3.1.6"	"0"	"2"	"legacy"	"1024"	"2"	"48000"	"-16"	"experiment"	"71"	"odd"	"legacy"	"[target1]"	"absent"	"present"	"169521"	"3640"	"163582"	"169521"	"3640"	"254470"	"314802"	"258378"	"265201"	"169452"	"246833"	NA	"3563"	"3630"	"169518"	"312536"	"265201"	NA	"274559"	"274311"	"169560"	"274311"	"305606"	"314802"	"254514"	"169518"	"169521"	"258378"	"167099"	NA	"274282"	"3566"	"3565"	"3566"	"305606"	"lineup1"	"no"	"3"	"no"	"1366"
"61"	""	"white"	"no"	"xpyriment"	"legacy"	"legacy"	"0"	"no"	"relative"	"2"	"2"	"2"	"2"	"2"	"15"	"15"	"2"	"2"	"2"	"15"	"0"	"0"	"0"	"1"	"15"	"2"	"2"	"15"	"2"	"1"	"2"	"15"	"23"	"2"	"1"	"2"	"2"	"2"	"2"	"2"	"0"	"0"	"0"	"15"	"02/14/18 14:44:45"	"Executes Python code"	"yes"	""	"lineup_videoVIPER_W.osexp"	"C:/Users/standalone/Desktop/Wednesday 1402 room 1.27 VIPER"	"no"	"mono"	"no"	"24"	"no"	"black"	"no"	"yes"	"male"	"768"	"No"	"no"	"no"	"no"	"legacy"	"3"	"0"	"C:/Users/standalone/Desktop/Wednesday 1402 room 1.27 VIPER/subject-71.csv"	"[member4]"	"5"	"2"	"4"	"7"	"3"	"1"	"xpyriment"	"Jazzy James"	"3.1.6"	"0"	"2"	"legacy"	"1024"	"2"	"48000"	"-16"	"experiment"	"71"	"odd"	"legacy"	"[target1]"	"absent"	"present"	"169521"	"3640"	"163582"	"169521"	"3640"	"254470"	"320621"	"258378"	"265201"	"169452"	"246833"	NA	"3563"	"3630"	"169518"	"318589"	"265201"	NA	"274559"	"274311"	"169560"	"274311"	"315088"	"320621"	"254514"	"169518"	"169521"	"258378"	"167099"	NA	"274282"	"3566"	"3565"	"3566"	"315088"	"lineup1"	"no"	"4"	"no"	"1366"
"62"	""	"white"	"no"	"xpyriment"	"legacy"	"legacy"	"0"	"no"	"relative"	"2"	"2"	"2"	"2"	"2"	"16"	"16"	"2"	"2"	"2"	"16"	"0"	"0"	"0"	"1"	"16"	"2"	"2"	"16"	"2"	"1"	"2"	"16"	"24"	"2"	"1"	"2"	"2"	"2"	"2"	"2"	"0"	"0"	"0"	"16"	"02/14/18 14:44:45"	"Executes Python code"	"yes"	""	"lineup_videoVIPER_W.osexp"	"C:/Users/standalone/Desktop/Wednesday 1402 room 1.27 VIPER"	"no"	"mono"	"no"	"24"	"no"	"black"	"no"	"yes"	"male"	"768"	"No"	"no"	"no"	"no"	"legacy"	"4"	"0"	"C:/Users/standalone/Desktop/Wednesday 1402 room 1.27 VIPER/subject-71.csv"	"[member5]"	"5"	"2"	"4"	"7"	"3"	"1"	"xpyriment"	"Jazzy James"	"3.1.6"	"0"	"2"	"legacy"	"1024"	"2"	"48000"	"-16"	"experiment"	"71"	"odd"	"legacy"	"[target1]"	"absent"	"present"	"169521"	"3640"	"163582"	"169521"	"3640"	"254470"	"327704"	"258378"	"265201"	"169452"	"246833"	NA	"3563"	"3630"	"169518"	"325244"	"265201"	NA	"274559"	"274311"	"169560"	"274311"	"320898"	"327704"	"254514"	"169518"	"169521"	"258378"	"167099"	NA	"274282"	"3566"	"3565"	"3566"	"320898"	"lineup1"	"no"	"5"	"no"	"1366"
"63"	""	"white"	"no"	"xpyriment"	"legacy"	"legacy"	"0"	"no"	"relative"	"2"	"2"	"2"	"2"	"2"	"17"	"17"	"2"	"2"	"2"	"17"	"0"	"0"	"0"	"1"	"17"	"2"	"2"	"17"	"2"	"1"	"2"	"17"	"25"	"2"	"1"	"2"	"2"	"2"	"2"	"2"	"0"	"0"	"0"	"17"	"02/14/18 14:44:45"	"Executes Python code"	"yes"	""	"lineup_videoVIPER_W.osexp"	"C:/Users/standalone/Desktop/Wednesday 1402 room 1.27 VIPER"	"no"	"mono"	"no"	"24"	"no"	"black"	"no"	"yes"	"male"	"768"	"Not sure"	"no"	"no"	"no"	"legacy"	"5"	"0"	"C:/Users/standalone/Desktop/Wednesday 1402 room 1.27 VIPER/subject-71.csv"	"[member6]"	"5"	"2"	"4"	"7"	"3"	"1"	"xpyriment"	"Jazzy James"	"3.1.6"	"0"	"2"	"legacy"	"1024"	"2"	"48000"	"-16"	"experiment"	"71"	"odd"	"legacy"	"[target1]"	"absent"	"present"	"169521"	"3640"	"163582"	"169521"	"3640"	"254470"	"337645"	"258378"	"265201"	"169452"	"246833"	NA	"3563"	"3630"	"169518"	"334585"	"265201"	NA	"274559"	"274311"	"169560"	"274311"	"327963"	"337645"	"254514"	"169518"	"169521"	"258378"	"167099"	NA	"274282"	"3566"	"3565"	"3566"	"327963"	"lineup1"	"no"	"6"	"no"	"1366"
"64"	""	"white"	"no"	"xpyriment"	"legacy"	"legacy"	"0"	"no"	"relative"	"2"	"2"	"2"	"2"	"2"	"17"	"17"	"2"	"2"	"2"	"17"	"0"	"0"	"0"	"1"	"17"	"2"	"2"	"17"	"2"	"1"	"2"	"17"	"25"	"2"	"1"	"2"	"2"	"2"	"2"	"2"	"0"	"0"	"0"	"17"	"02/14/18 14:44:45"	"Executes Python code"	"yes"	""	"lineup_videoVIPER_W.osexp"	"C:/Users/standalone/Desktop/Wednesday 1402 room 1.27 VIPER"	"no"	"mono"	"no"	"24"	"no"	"black"	"no"	"yes"	"male"	"768"	"Not sure"	"Yes"	"One"	"No"	"legacy"	"5"	"0"	"C:/Users/standalone/Desktop/Wednesday 1402 room 1.27 VIPER/subject-71.csv"	"[member6]"	"5"	"2"	"4"	"7"	"3"	"1"	"xpyriment"	"Jazzy James"	"3.1.6"	"0"	"2"	"legacy"	"1024"	"2"	"48000"	"-16"	"experiment"	"71"	"odd"	"legacy"	"[target1]"	"absent"	"present"	"169521"	"3640"	"349876"	"169521"	"3640"	"254470"	"337645"	"343050"	"349876"	"356758"	"246833"	NA	"3563"	"3630"	"169518"	"334585"	"265201"	NA	"274559"	"274311"	"169560"	"274311"	"327963"	"356758"	"337694"	"169518"	"169521"	"343050"	"353389"	NA	"274282"	"3566"	"3565"	"3566"	"327963"	"lineup1"	"no"	"6"	"no"	"1366"
"65"	""	"white"	"no"	"xpyriment"	"legacy"	"legacy"	"0"	"no"	"relative"	"2"	"2"	"2"	"2"	"2"	"17"	"17"	"2"	"2"	"2"	"17"	"0"	"0"	"0"	"1"	"17"	"2"	"2"	"17"	"2"	"1"	"2"	"17"	"25"	"2"	"1"	"2"	"2"	"2"	"2"	"2"	"0"	"0"	"0"	"17"	"02/14/18 14:44:45"	"Executes Python code"	"yes"	""	"lineup_videoVIPER_W.osexp"	"C:/Users/standalone/Desktop/Wednesday 1402 room 1.27 VIPER"	"no"	"mono"	"no"	"24"	"no"	"black"	"no"	"yes"	"male"	"768"	"Not sure"	"Yes"	"One"	"No"	"legacy"	"5"	"0"	"C:/Users/standalone/Desktop/Wednesday 1402 room 1.27 VIPER/subject-71.csv"	"[member6]"	"5"	"2"	"4"	"7"	"3"	"1"	"xpyriment"	"Jazzy James"	"3.1.6"	"0"	"2"	"legacy"	"1024"	"2"	"48000"	"-16"	"experiment"	"71"	"odd"	"legacy"	"[target1]"	"absent"	"present"	"169521"	"3640"	"356799"	"169521"	"3640"	"254470"	"337645"	"343050"	"349876"	"376463"	"246833"	NA	"3563"	"3630"	"169518"	"334585"	"265201"	NA	"274559"	"274311"	"169560"	"274311"	"327963"	"376464"	"337694"	"169518"	"169521"	"343050"	"372431"	NA	"274282"	"3566"	"3565"	"3566"	"327963"	"lineup1"	"no"	"6"	"no"	"1366"
"66"	""	"white"	"no"	"xpyriment"	"legacy"	"legacy"	"0"	"no"	"relative"	"2"	"2"	"2"	"2"	"2"	"17"	"17"	"2"	"2"	"2"	"17"	"0"	"0"	"0"	"1"	"17"	"2"	"2"	"17"	"2"	"1"	"2"	"17"	"25"	"2"	"1"	"2"	"2"	"2"	"2"	"2"	"0"	"0"	"0"	"17"	"02/14/18 14:44:45"	"Executes Python code"	"yes"	""	"lineup_videoVIPER_W.osexp"	"C:/Users/standalone/Desktop/Wednesday 1402 room 1.27 VIPER"	"no"	"mono"	"no"	"24"	"no"	"black"	"no"	"yes"	"male"	"768"	"Not sure"	"Yes"	"One"	"No"	"legacy"	"5"	"0"	"C:/Users/standalone/Desktop/Wednesday 1402 room 1.27 VIPER/subject-71.csv"	"[member6]"	"5"	"2"	"4"	"7"	"3"	"1"	"xpyriment"	"Jazzy James"	"3.1.6"	"0"	"2"	"legacy"	"1024"	"2"	"48000"	"-16"	"experiment"	"71"	"odd"	"legacy"	"[target1]"	"absent"	"present"	"169521"	"3640"	"356799"	"169521"	"3640"	"254470"	"337645"	"343050"	"349876"	"376463"	"246833"	"376532"	"3563"	"3630"	"169518"	"334585"	"265201"	NA	"274559"	"274311"	"169560"	"274311"	"327963"	"377396"	"337694"	"169518"	"169521"	"343050"	"372431"	NA	"274282"	"3566"	"3565"	"3566"	"327963"	"lineup1"	"no"	"6"	"no"	"1366"
"67"	""	"white"	"no"	"xpyriment"	"legacy"	"legacy"	"0"	NA	"relative"	NA	NA	NA	NA	NA	NA	NA	NA	NA	NA	NA	"0"	"0"	"0"	NA	NA	NA	NA	NA	NA	NA	NA	NA	"1"	NA	NA	NA	NA	NA	NA	NA	"0"	"0"	"0"	NA	"02/14/18 15:20:40"	"Executes Python code"	"yes"	""	"lineup_videoVIPER_W.osexp"	"C:/Users/standalone/Desktop/Wednesday 1402 room 1.26 VIPER"	"no"	"mono"	"no"	"24"	"no"	"black"	"no"	"yes"	NA	"768"	NA	NA	NA	NA	"legacy"	"0"	"0"	"C:/Users/standalone/Desktop/Wednesday 1402 room 1.26 VIPER/subject-72.csv"	NA	NA	NA	NA	NA	NA	NA	"xpyriment"	"Jazzy James"	"3.1.6"	"0"	"2"	"legacy"	"1024"	"2"	"48000"	"-16"	"experiment"	"72"	"even"	"legacy"	NA	"absent"	"present"	NA	NA	NA	NA	NA	NA	NA	NA	NA	NA	NA	NA	"2407"	NA	NA	NA	NA	NA	NA	NA	NA	NA	NA	"2409"	NA	NA	NA	NA	NA	NA	NA	"2409"	"2407"	"2408"	NA	"lineup1"	"no"	NA	"no"	"1366"
"68"	""	"white"	"no"	"xpyriment"	"legacy"	"legacy"	"0"	NA	"relative"	"0"	"0"	NA	"0"	"0"	NA	NA	NA	NA	NA	NA	"0"	"0"	"0"	"0"	NA	NA	NA	NA	NA	"0"	NA	NA	"2"	NA	"0"	"0"	NA	NA	NA	NA	"0"	"0"	"0"	NA	"02/14/18 15:20:40"	"Executes Python code"	"yes"	""	"lineup_videoVIPER_W.osexp"	"C:/Users/standalone/Desktop/Wednesday 1402 room 1.26 VIPER"	"no"	"mono"	"no"	"24"	"no"	"black"	"no"	"yes"	"male"	"768"	NA	NA	NA	NA	"legacy"	"0"	"0"	"C:/Users/standalone/Desktop/Wednesday 1402 room 1.26 VIPER/subject-72.csv"	NA	"2"	"7"	"3"	"1"	"4"	"5"	"xpyriment"	"Jazzy James"	"3.1.6"	"0"	"2"	"legacy"	"1024"	"2"	"48000"	"-16"	"experiment"	"72"	"even"	"legacy"	"[target1]"	"absent"	"present"	"2528"	NA	NA	"2528"	NA	NA	NA	NA	NA	NA	NA	NA	"2407"	"2521"	"2525"	NA	NA	NA	NA	NA	NA	NA	NA	"2528"	NA	"2525"	"2527"	NA	NA	NA	NA	"2409"	"2407"	"2408"	NA	"lineup1"	"no"	NA	"no"	"1366"
"69"	""	"white"	"no"	"xpyriment"	"legacy"	"legacy"	"0"	"no"	"relative"	"0"	"0"	"0"	"0"	"0"	"0"	"0"	"0"	"0"	"0"	"0"	"0"	"0"	"0"	"0"	"0"	"0"	"0"	"0"	"0"	"0"	"0"	"0"	"4"	"0"	"0"	"0"	"0"	"0"	"0"	"0"	"0"	"0"	"0"	"0"	"02/14/18 15:20:40"	"Executes Python code"	"yes"	""	"lineup_videoVIPER_W.osexp"	"C:/Users/standalone/Desktop/Wednesday 1402 room 1.26 VIPER"	"no"	"mono"	"no"	"24"	"no"	"black"	"no"	"yes"	"male"	"768"	"No"	"no"	"no"	"no"	"legacy"	"0"	"0"	"C:/Users/standalone/Desktop/Wednesday 1402 room 1.26 VIPER/subject-72.csv"	"[member1]"	"2"	"7"	"3"	"1"	"4"	"5"	"xpyriment"	"Jazzy James"	"3.1.6"	"0"	"2"	"legacy"	"1024"	"2"	"48000"	"-16"	"experiment"	"72"	"even"	"legacy"	"[target1]"	"absent"	"present"	"2528"	NA	NA	"2528"	NA	NA	"28751"	NA	NA	NA	NA	NA	"2407"	"2521"	"2525"	"25091"	NA	NA	"2933"	"2618"	"2591"	"2618"	"2933"	"28751"	NA	"2525"	"2527"	NA	NA	NA	NA	"2409"	"2407"	"2408"	"6679"	"lineup1"	"no"	"1"	"no"	"1366"
"70"	""	"white"	"no"	"xpyriment"	"legacy"	"legacy"	"0"	"no"	"relative"	"0"	"0"	"0"	"0"	"0"	"1"	"1"	"0"	"0"	"0"	"1"	"0"	"0"	"0"	"0"	"1"	"0"	"0"	"1"	"0"	"0"	"0"	"1"	"5"	"0"	"0"	"0"	"0"	"0"	"0"	"0"	"0"	"0"	"0"	"1"	"02/14/18 15:20:40"	"Executes Python code"	"yes"	""	"lineup_videoVIPER_W.osexp"	"C:/Users/standalone/Desktop/Wednesday 1402 room 1.26 VIPER"	"no"	"mono"	"no"	"24"	"no"	"black"	"no"	"yes"	"male"	"768"	"No"	"no"	"no"	"no"	"legacy"	"1"	"0"	"C:/Users/standalone/Desktop/Wednesday 1402 room 1.26 VIPER/subject-72.csv"	"[member2]"	"2"	"7"	"3"	"1"	"4"	"5"	"xpyriment"	"Jazzy James"	"3.1.6"	"0"	"2"	"legacy"	"1024"	"2"	"48000"	"-16"	"experiment"	"72"	"even"	"legacy"	"[target1]"	"absent"	"present"	"2528"	NA	NA	"2528"	NA	NA	"39260"	NA	NA	NA	NA	NA	"2407"	"2521"	"2525"	"36156"	NA	NA	"2933"	"2618"	"2591"	"2618"	"28989"	"39260"	NA	"2525"	"2527"	NA	NA	NA	NA	"2409"	"2407"	"2408"	"28989"	"lineup1"	"no"	"2"	"no"	"1366"
"71"	""	"white"	"no"	"xpyriment"	"legacy"	"legacy"	"0"	"no"	"relative"	"0"	"0"	"0"	"0"	"0"	"2"	"2"	"0"	"0"	"0"	"2"	"0"	"0"	"0"	"0"	"2"	"0"	"0"	"2"	"0"	"0"	"0"	"2"	"6"	"0"	"0"	"0"	"0"	"0"	"0"	"0"	"0"	"0"	"0"	"2"	"02/14/18 15:20:40"	"Executes Python code"	"yes"	""	"lineup_videoVIPER_W.osexp"	"C:/Users/standalone/Desktop/Wednesday 1402 room 1.26 VIPER"	"no"	"mono"	"no"	"24"	"no"	"black"	"no"	"yes"	"male"	"768"	"No"	"no"	"no"	"no"	"legacy"	"2"	"0"	"C:/Users/standalone/Desktop/Wednesday 1402 room 1.26 VIPER/subject-72.csv"	"[member3]"	"2"	"7"	"3"	"1"	"4"	"5"	"xpyriment"	"Jazzy James"	"3.1.6"	"0"	"2"	"legacy"	"1024"	"2"	"48000"	"-16"	"experiment"	"72"	"even"	"legacy"	"[target1]"	"absent"	"present"	"2528"	NA	NA	"2528"	NA	NA	"44937"	NA	NA	NA	NA	NA	"2407"	"2521"	"2525"	"42293"	NA	NA	"2933"	"2618"	"2591"	"2618"	"39506"	"44937"	NA	"2525"	"2527"	NA	NA	NA	NA	"2409"	"2407"	"2408"	"39506"	"lineup1"	"no"	"3"	"no"	"1366"
"72"	""	"white"	"no"	"xpyriment"	"legacy"	"legacy"	"0"	"no"	"relative"	"0"	"0"	"0"	"0"	"0"	"3"	"3"	"0"	"0"	"0"	"3"	"0"	"0"	"0"	"0"	"3"	"0"	"0"	"3"	"0"	"0"	"0"	"3"	"7"	"0"	"0"	"0"	"0"	"0"	"0"	"0"	"0"	"0"	"0"	"3"	"02/14/18 15:20:40"	"Executes Python code"	"yes"	""	"lineup_videoVIPER_W.osexp"	"C:/Users/standalone/Desktop/Wednesday 1402 room 1.26 VIPER"	"no"	"mono"	"no"	"24"	"no"	"black"	"no"	"yes"	"male"	"768"	"No"	"no"	"no"	"no"	"legacy"	"3"	"0"	"C:/Users/standalone/Desktop/Wednesday 1402 room 1.26 VIPER/subject-72.csv"	"[member4]"	"2"	"7"	"3"	"1"	"4"	"5"	"xpyriment"	"Jazzy James"	"3.1.6"	"0"	"2"	"legacy"	"1024"	"2"	"48000"	"-16"	"experiment"	"72"	"even"	"legacy"	"[target1]"	"absent"	"present"	"2528"	NA	NA	"2528"	NA	NA	"53515"	NA	NA	NA	NA	NA	"2407"	"2521"	"2525"	"49853"	NA	NA	"2933"	"2618"	"2591"	"2618"	"45178"	"53515"	NA	"2525"	"2527"	NA	NA	NA	NA	"2409"	"2407"	"2408"	"45178"	"lineup1"	"no"	"4"	"no"	"1366"
"73"	""	"white"	"no"	"xpyriment"	"legacy"	"legacy"	"0"	"no"	"relative"	"0"	"0"	"0"	"0"	"0"	"4"	"4"	"0"	"0"	"0"	"4"	"0"	"0"	"0"	"0"	"4"	"0"	"0"	"4"	"0"	"0"	"0"	"4"	"8"	"0"	"0"	"0"	"0"	"0"	"0"	"0"	"0"	"0"	"0"	"4"	"02/14/18 15:20:40"	"Executes Python code"	"yes"	""	"lineup_videoVIPER_W.osexp"	"C:/Users/standalone/Desktop/Wednesday 1402 room 1.26 VIPER"	"no"	"mono"	"no"	"24"	"no"	"black"	"no"	"yes"	"male"	"768"	"No"	"no"	"no"	"no"	"legacy"	"4"	"0"	"C:/Users/standalone/Desktop/Wednesday 1402 room 1.26 VIPER/subject-72.csv"	"[member5]"	"2"	"7"	"3"	"1"	"4"	"5"	"xpyriment"	"Jazzy James"	"3.1.6"	"0"	"2"	"legacy"	"1024"	"2"	"48000"	"-16"	"experiment"	"72"	"even"	"legacy"	"[target1]"	"absent"	"present"	"2528"	NA	NA	"2528"	NA	NA	"60709"	NA	NA	NA	NA	NA	"2407"	"2521"	"2525"	"57793"	NA	NA	"2933"	"2618"	"2591"	"2618"	"53774"	"60709"	NA	"2525"	"2527"	NA	NA	NA	NA	"2409"	"2407"	"2408"	"53774"	"lineup1"	"no"	"5"	"no"	"1366"
"74"	""	"white"	"no"	"xpyriment"	"legacy"	"legacy"	"0"	"no"	"relative"	"0"	"0"	"0"	"0"	"0"	"5"	"5"	"0"	"0"	"0"	"5"	"0"	"0"	"0"	"0"	"5"	"0"	"0"	"5"	"0"	"0"	"0"	"5"	"9"	"0"	"0"	"0"	"0"	"0"	"0"	"0"	"0"	"0"	"0"	"5"	"02/14/18 15:20:40"	"Executes Python code"	"yes"	""	"lineup_videoVIPER_W.osexp"	"C:/Users/standalone/Desktop/Wednesday 1402 room 1.26 VIPER"	"no"	"mono"	"no"	"24"	"no"	"black"	"no"	"yes"	"male"	"768"	"No"	"no"	"no"	"no"	"legacy"	"5"	"0"	"C:/Users/standalone/Desktop/Wednesday 1402 room 1.26 VIPER/subject-72.csv"	"[member6]"	"2"	"7"	"3"	"1"	"4"	"5"	"xpyriment"	"Jazzy James"	"3.1.6"	"0"	"2"	"legacy"	"1024"	"2"	"48000"	"-16"	"experiment"	"72"	"even"	"legacy"	"[target1]"	"absent"	"present"	"2528"	NA	NA	"2528"	NA	NA	"75426"	NA	NA	NA	NA	NA	"2407"	"2521"	"2525"	"72510"	NA	NA	"2933"	"2618"	"2591"	"2618"	"60955"	"75426"	NA	"2525"	"2527"	NA	NA	NA	NA	"2409"	"2407"	"2408"	"60955"	"lineup1"	"no"	"6"	"no"	"1366"
"75"	""	"white"	"no"	"xpyriment"	"legacy"	"legacy"	"0"	"no"	"relative"	"0"	"0"	"0"	"0"	"0"	"5"	"5"	"0"	"0"	"0"	"5"	"0"	"0"	"0"	"0"	"5"	"0"	"0"	"5"	"0"	"0"	"0"	"5"	"9"	"0"	"0"	"0"	"0"	"0"	"0"	"0"	"0"	"0"	"0"	"5"	"02/14/18 15:20:40"	"Executes Python code"	"yes"	""	"lineup_videoVIPER_W.osexp"	"C:/Users/standalone/Desktop/Wednesday 1402 room 1.26 VIPER"	"no"	"mono"	"no"	"24"	"no"	"black"	"no"	"yes"	"male"	"768"	"No"	"No"	"no"	"No"	"legacy"	"5"	"0"	"C:/Users/standalone/Desktop/Wednesday 1402 room 1.26 VIPER/subject-72.csv"	"[member6]"	"2"	"7"	"3"	"1"	"4"	"5"	"xpyriment"	"Jazzy James"	"3.1.6"	"0"	"2"	"legacy"	"1024"	"2"	"48000"	"-16"	"experiment"	"72"	"even"	"legacy"	"[target1]"	"absent"	"present"	"2528"	NA	"80358"	"2528"	NA	NA	"75426"	"80358"	NA	"90607"	NA	NA	"2407"	"2521"	"2525"	"72510"	NA	NA	"2933"	"2618"	"2591"	"2618"	"60955"	"90607"	"75471"	"2525"	"2527"	NA	"85981"	NA	NA	"2409"	"2407"	"2408"	"60955"	"lineup1"	"no"	"6"	"no"	"1366"
"76"	""	"white"	"no"	"xpyriment"	"legacy"	"legacy"	"0"	"no"	"relative"	"1"	"1"	"0"	"1"	"1"	"5"	"5"	"0"	"0"	"0"	"5"	"0"	"0"	"0"	"1"	"5"	"0"	"0"	"5"	"0"	"1"	"0"	"5"	"10"	"0"	"1"	"1"	"0"	"0"	"0"	"0"	"0"	"0"	"0"	"5"	"02/14/18 15:20:40"	"Executes Python code"	"yes"	""	"lineup_videoVIPER_W.osexp"	"C:/Users/standalone/Desktop/Wednesday 1402 room 1.26 VIPER"	"no"	"mono"	"no"	"24"	"no"	"black"	"no"	"yes"	"female"	"768"	"No"	"No"	"no"	"No"	"legacy"	"0"	"0"	"C:/Users/standalone/Desktop/Wednesday 1402 room 1.26 VIPER/subject-72.csv"	"[member6]"	"1"	"5"	"4"	"6"	"2"	"3"	"xpyriment"	"Jazzy James"	"3.1.6"	"0"	"2"	"legacy"	"1024"	"2"	"48000"	"-16"	"experiment"	"72"	"even"	"legacy"	"[target2]"	"absent"	"present"	"2528"	"90687"	"80358"	"2528"	"90687"	NA	"75426"	"80358"	NA	"90607"	NA	NA	"2407"	"2521"	"90684"	"72510"	NA	NA	"2933"	"2618"	"2591"	"2618"	"60955"	"90687"	"75471"	"90684"	"90687"	NA	"85981"	NA	NA	"2409"	"2407"	"2408"	"60955"	"lineup1"	"no"	"6"	"no"	"1366"
"77"	""	"white"	"no"	"xpyriment"	"legacy"	"legacy"	"0"	"no"	"relative"	"1"	"1"	"1"	"1"	"1"	"6"	"6"	"1"	"1"	"1"	"6"	"0"	"0"	"0"	"1"	"6"	"1"	"1"	"6"	"1"	"1"	"1"	"6"	"12"	"1"	"1"	"1"	"1"	"1"	"1"	"1"	"0"	"0"	"0"	"6"	"02/14/18 15:20:40"	"Executes Python code"	"yes"	""	"lineup_videoVIPER_W.osexp"	"C:/Users/standalone/Desktop/Wednesday 1402 room 1.26 VIPER"	"no"	"mono"	"no"	"24"	"no"	"black"	"no"	"yes"	"female"	"768"	"No"	"no"	"no"	"no"	"legacy"	"0"	"0"	"C:/Users/standalone/Desktop/Wednesday 1402 room 1.26 VIPER/subject-72.csv"	"[member1]"	"1"	"5"	"4"	"6"	"2"	"3"	"xpyriment"	"Jazzy James"	"3.1.6"	"0"	"2"	"legacy"	"1024"	"2"	"48000"	"-16"	"experiment"	"72"	"even"	"legacy"	"[target2]"	"absent"	"present"	"2528"	"90687"	"80358"	"2528"	"90687"	NA	"106619"	"80358"	NA	"90607"	NA	NA	"2407"	"2521"	"90684"	"102965"	NA	NA	"90960"	"90760"	"90735"	"90760"	"90960"	"106619"	"75471"	"90684"	"90687"	NA	"85981"	NA	NA	"2409"	"2407"	"2408"	"92962"	"lineup1"	"no"	"1"	"no"	"1366"
"78"	""	"white"	"no"	"xpyriment"	"legacy"	"legacy"	"0"	"no"	"relative"	"1"	"1"	"1"	"1"	"1"	"7"	"7"	"1"	"1"	"1"	"7"	"0"	"0"	"0"	"1"	"7"	"1"	"1"	"7"	"1"	"1"	"1"	"7"	"13"	"1"	"1"	"1"	"1"	"1"	"1"	"1"	"0"	"0"	"0"	"7"	"02/14/18 15:20:40"	"Executes Python code"	"yes"	""	"lineup_videoVIPER_W.osexp"	"C:/Users/standalone/Desktop/Wednesday 1402 room 1.26 VIPER"	"no"	"mono"	"no"	"24"	"no"	"black"	"no"	"yes"	"female"	"768"	"No"	"no"	"no"	"no"	"legacy"	"1"	"0"	"C:/Users/standalone/Desktop/Wednesday 1402 room 1.26 VIPER/subject-72.csv"	"[member2]"	"1"	"5"	"4"	"6"	"2"	"3"	"xpyriment"	"Jazzy James"	"3.1.6"	"0"	"2"	"legacy"	"1024"	"2"	"48000"	"-16"	"experiment"	"72"	"even"	"legacy"	"[target2]"	"absent"	"present"	"2528"	"90687"	"80358"	"2528"	"90687"	NA	"118924"	"80358"	NA	"90607"	NA	NA	"2407"	"2521"	"90684"	"115068"	NA	NA	"90960"	"90760"	"90735"	"90760"	"106861"	"118924"	"75471"	"90684"	"90687"	NA	"85981"	NA	NA	"2409"	"2407"	"2408"	"106861"	"lineup1"	"no"	"2"	"no"	"1366"
"79"	""	"white"	"no"	"xpyriment"	"legacy"	"legacy"	"0"	"no"	"relative"	"1"	"1"	"1"	"1"	"1"	"8"	"8"	"1"	"1"	"1"	"8"	"0"	"0"	"0"	"1"	"8"	"1"	"1"	"8"	"1"	"1"	"1"	"8"	"14"	"1"	"1"	"1"	"1"	"1"	"1"	"1"	"0"	"0"	"0"	"8"	"02/14/18 15:20:40"	"Executes Python code"	"yes"	""	"lineup_videoVIPER_W.osexp"	"C:/Users/standalone/Desktop/Wednesday 1402 room 1.26 VIPER"	"no"	"mono"	"no"	"24"	"no"	"black"	"no"	"yes"	"female"	"768"	"No"	"no"	"no"	"no"	"legacy"	"2"	"0"	"C:/Users/standalone/Desktop/Wednesday 1402 room 1.26 VIPER/subject-72.csv"	"[member3]"	"1"	"5"	"4"	"6"	"2"	"3"	"xpyriment"	"Jazzy James"	"3.1.6"	"0"	"2"	"legacy"	"1024"	"2"	"48000"	"-16"	"experiment"	"72"	"even"	"legacy"	"[target2]"	"absent"	"present"	"2528"	"90687"	"80358"	"2528"	"90687"	NA	"125325"	"80358"	NA	"90607"	NA	NA	"2407"	"2521"	"90684"	"122846"	NA	NA	"90960"	"90760"	"90735"	"90760"	"119162"	"125326"	"75471"	"90684"	"90687"	NA	"85981"	NA	NA	"2409"	"2407"	"2408"	"119163"	"lineup1"	"no"	"3"	"no"	"1366"
"80"	""	"white"	"no"	"xpyriment"	"legacy"	"legacy"	"0"	"no"	"relative"	"1"	"1"	"1"	"1"	"1"	"9"	"9"	"1"	"1"	"1"	"9"	"0"	"0"	"0"	"1"	"9"	"1"	"1"	"9"	"1"	"1"	"1"	"9"	"15"	"1"	"1"	"1"	"1"	"1"	"1"	"1"	"0"	"0"	"0"	"9"	"02/14/18 15:20:40"	"Executes Python code"	"yes"	""	"lineup_videoVIPER_W.osexp"	"C:/Users/standalone/Desktop/Wednesday 1402 room 1.26 VIPER"	"no"	"mono"	"no"	"24"	"no"	"black"	"no"	"yes"	"female"	"768"	"No"	"no"	"no"	"no"	"legacy"	"3"	"0"	"C:/Users/standalone/Desktop/Wednesday 1402 room 1.26 VIPER/subject-72.csv"	"[member4]"	"1"	"5"	"4"	"6"	"2"	"3"	"xpyriment"	"Jazzy James"	"3.1.6"	"0"	"2"	"legacy"	"1024"	"2"	"48000"	"-16"	"experiment"	"72"	"even"	"legacy"	"[target2]"	"absent"	"present"	"2528"	"90687"	"80358"	"2528"	"90687"	NA	"136842"	"80358"	NA	"90607"	NA	NA	"2407"	"2521"	"90684"	"133391"	NA	NA	"90960"	"90760"	"90735"	"90760"	"125567"	"136842"	"75471"	"90684"	"90687"	NA	"85981"	NA	NA	"2409"	"2407"	"2408"	"125567"	"lineup1"	"no"	"4"	"no"	"1366"
"81"	""	"white"	"no"	"xpyriment"	"legacy"	"legacy"	"0"	"no"	"relative"	"1"	"1"	"1"	"1"	"1"	"10"	"10"	"1"	"1"	"1"	"10"	"0"	"0"	"0"	"1"	"10"	"1"	"1"	"10"	"1"	"1"	"1"	"10"	"16"	"1"	"1"	"1"	"1"	"1"	"1"	"1"	"0"	"0"	"0"	"10"	"02/14/18 15:20:40"	"Executes Python code"	"yes"	""	"lineup_videoVIPER_W.osexp"	"C:/Users/standalone/Desktop/Wednesday 1402 room 1.26 VIPER"	"no"	"mono"	"no"	"24"	"no"	"black"	"no"	"yes"	"female"	"768"	"No"	"no"	"no"	"no"	"legacy"	"4"	"0"	"C:/Users/standalone/Desktop/Wednesday 1402 room 1.26 VIPER/subject-72.csv"	"[member5]"	"1"	"5"	"4"	"6"	"2"	"3"	"xpyriment"	"Jazzy James"	"3.1.6"	"0"	"2"	"legacy"	"1024"	"2"	"48000"	"-16"	"experiment"	"72"	"even"	"legacy"	"[target2]"	"absent"	"present"	"2528"	"90687"	"80358"	"2528"	"90687"	NA	"145933"	"80358"	NA	"90607"	NA	NA	"2407"	"2521"	"90684"	"142676"	NA	NA	"90960"	"90760"	"90735"	"90760"	"137085"	"145933"	"75471"	"90684"	"90687"	NA	"85981"	NA	NA	"2409"	"2407"	"2408"	"137086"	"lineup1"	"no"	"5"	"no"	"1366"
"82"	""	"white"	"no"	"xpyriment"	"legacy"	"legacy"	"0"	"no"	"relative"	"1"	"1"	"1"	"1"	"1"	"11"	"11"	"1"	"1"	"1"	"11"	"0"	"0"	"0"	"1"	"11"	"1"	"1"	"11"	"1"	"1"	"1"	"11"	"17"	"1"	"1"	"1"	"1"	"1"	"1"	"1"	"0"	"0"	"0"	"11"	"02/14/18 15:20:40"	"Executes Python code"	"yes"	""	"lineup_videoVIPER_W.osexp"	"C:/Users/standalone/Desktop/Wednesday 1402 room 1.26 VIPER"	"no"	"mono"	"no"	"24"	"no"	"black"	"no"	"yes"	"female"	"768"	"No"	"no"	"no"	"no"	"legacy"	"5"	"0"	"C:/Users/standalone/Desktop/Wednesday 1402 room 1.26 VIPER/subject-72.csv"	"[member6]"	"1"	"5"	"4"	"6"	"2"	"3"	"xpyriment"	"Jazzy James"	"3.1.6"	"0"	"2"	"legacy"	"1024"	"2"	"48000"	"-16"	"experiment"	"72"	"even"	"legacy"	"[target2]"	"absent"	"present"	"2528"	"90687"	"80358"	"2528"	"90687"	NA	"154043"	"80358"	NA	"90607"	NA	NA	"2407"	"2521"	"90684"	"151311"	NA	NA	"90960"	"90760"	"90735"	"90760"	"146193"	"154043"	"75471"	"90684"	"90687"	NA	"85981"	NA	NA	"2409"	"2407"	"2408"	"146193"	"lineup1"	"no"	"6"	"no"	"1366"
"83"	""	"white"	"no"	"xpyriment"	"legacy"	"legacy"	"0"	"no"	"relative"	"1"	"1"	"1"	"1"	"1"	"11"	"11"	"1"	"1"	"1"	"11"	"0"	"0"	"0"	"1"	"11"	"1"	"1"	"11"	"1"	"1"	"1"	"11"	"17"	"1"	"1"	"1"	"1"	"1"	"1"	"1"	"0"	"0"	"0"	"11"	"02/14/18 15:20:40"	"Executes Python code"	"yes"	""	"lineup_videoVIPER_W.osexp"	"C:/Users/standalone/Desktop/Wednesday 1402 room 1.26 VIPER"	"no"	"mono"	"no"	"24"	"no"	"black"	"no"	"yes"	"female"	"768"	"No"	"No"	"no"	"No"	"legacy"	"5"	"0"	"C:/Users/standalone/Desktop/Wednesday 1402 room 1.26 VIPER/subject-72.csv"	"[member6]"	"1"	"5"	"4"	"6"	"2"	"3"	"xpyriment"	"Jazzy James"	"3.1.6"	"0"	"2"	"legacy"	"1024"	"2"	"48000"	"-16"	"experiment"	"72"	"even"	"legacy"	"[target2]"	"absent"	"present"	"2528"	"90687"	"156844"	"2528"	"90687"	NA	"154043"	"156844"	NA	"165601"	NA	NA	"2407"	"2521"	"90684"	"151311"	NA	NA	"90960"	"90760"	"90735"	"90760"	"146193"	"165601"	"154099"	"90684"	"90687"	NA	"161297"	NA	NA	"2409"	"2407"	"2408"	"146193"	"lineup1"	"no"	"6"	"no"	"1366"
"84"	""	"white"	"no"	"xpyriment"	"legacy"	"legacy"	"0"	"no"	"relative"	"1"	"1"	"1"	"1"	"1"	"11"	"11"	"1"	"1"	"1"	"11"	"0"	"0"	"0"	"1"	"11"	"1"	"1"	"11"	"1"	"1"	"1"	"11"	"17"	"1"	"1"	"1"	"1"	"1"	"1"	"1"	"0"	"0"	"0"	"11"	"02/14/18 15:20:40"	"Executes Python code"	"yes"	""	"lineup_videoVIPER_W.osexp"	"C:/Users/standalone/Desktop/Wednesday 1402 room 1.26 VIPER"	"no"	"mono"	"no"	"24"	"no"	"black"	"no"	"yes"	"female"	"768"	"No"	"No"	"no"	"No"	"legacy"	"5"	"0"	"C:/Users/standalone/Desktop/Wednesday 1402 room 1.26 VIPER/subject-72.csv"	"[member6]"	"1"	"5"	"4"	"6"	"2"	"3"	"xpyriment"	"Jazzy James"	"3.1.6"	"0"	"2"	"legacy"	"1024"	"2"	"48000"	"-16"	"experiment"	"72"	"even"	"legacy"	"[target2]"	"absent"	"present"	"2528"	"90687"	"156844"	"2528"	"90687"	NA	"154043"	"156844"	NA	"165601"	NA	"165660"	"2407"	"2521"	"90684"	"151311"	NA	NA	"90960"	"90760"	"90735"	"90760"	"146193"	"167048"	"154099"	"90684"	"90687"	NA	"161297"	NA	NA	"2409"	"2407"	"2408"	"146193"	"lineup1"	"no"	"6"	"no"	"1366"
"85"	""	"white"	"no"	"xpyriment"	"legacy"	"legacy"	"0"	NA	"relative"	NA	NA	NA	NA	NA	NA	NA	NA	NA	NA	NA	"0"	"0"	"0"	NA	NA	NA	NA	NA	NA	NA	NA	NA	"1"	NA	NA	NA	NA	NA	NA	NA	"0"	"0"	"0"	NA	"02/14/18 15:20:03"	"Executes Python code"	"yes"	""	"lineup_videoVIPER_W.osexp"	"C:/Users/standalone/Desktop/Wednesday 1402 room 1.27 VIPER"	"no"	"mono"	"no"	"24"	"no"	"black"	"no"	"yes"	NA	"768"	NA	NA	NA	NA	"legacy"	"0"	"0"	"C:/Users/standalone/Desktop/Wednesday 1402 room 1.27 VIPER/subject-73.csv"	NA	NA	NA	NA	NA	NA	NA	"xpyriment"	"Jazzy James"	"3.1.6"	"0"	"2"	"legacy"	"1024"	"2"	"48000"	"-16"	"experiment"	"73"	"odd"	"legacy"	NA	"present"	"absent"	NA	NA	NA	NA	NA	NA	NA	NA	NA	NA	NA	NA	"3700"	NA	NA	NA	NA	NA	NA	NA	NA	NA	NA	"3702"	NA	NA	NA	NA	NA	NA	NA	"3702"	"3700"	"3702"	NA	"lineup1"	"no"	NA	"no"	"1366"
"86"	""	"white"	"no"	"xpyriment"	"legacy"	"legacy"	"0"	NA	"relative"	"0"	"0"	NA	"0"	"0"	NA	NA	NA	NA	NA	NA	"0"	"0"	"0"	"0"	NA	NA	NA	NA	NA	"0"	NA	NA	"2"	NA	"0"	"0"	NA	NA	NA	NA	"0"	"0"	"0"	NA	"02/14/18 15:20:03"	"Executes Python code"	"yes"	""	"lineup_videoVIPER_W.osexp"	"C:/Users/standalone/Desktop/Wednesday 1402 room 1.27 VIPER"	"no"	"mono"	"no"	"24"	"no"	"black"	"no"	"yes"	"male"	"768"	NA	NA	NA	NA	"legacy"	"0"	"0"	"C:/Users/standalone/Desktop/Wednesday 1402 room 1.27 VIPER/subject-73.csv"	NA	"2"	"5"	"6"	"3"	"1"	"4"	"xpyriment"	"Jazzy James"	"3.1.6"	"0"	"2"	"legacy"	"1024"	"2"	"48000"	"-16"	"experiment"	"73"	"odd"	"legacy"	"[target1]"	"present"	"absent"	NA	"3781"	NA	NA	"3781"	NA	NA	NA	NA	NA	NA	NA	"3700"	"3775"	"3779"	NA	NA	NA	NA	NA	NA	NA	NA	"3781"	NA	"3779"	"3781"	NA	NA	NA	NA	"3702"	"3700"	"3702"	NA	"lineup1"	"no"	NA	"no"	"1366"
"87"	""	"white"	"no"	"xpyriment"	"legacy"	"legacy"	"0"	"no"	"relative"	"0"	"0"	"0"	"0"	"0"	"0"	"0"	"0"	"0"	"0"	"0"	"0"	"0"	"0"	"0"	"0"	"0"	"0"	"0"	"0"	"0"	"0"	"0"	"4"	"0"	"0"	"0"	"0"	"0"	"0"	"0"	"0"	"0"	"0"	"0"	"02/14/18 15:20:03"	"Executes Python code"	"yes"	""	"lineup_videoVIPER_W.osexp"	"C:/Users/standalone/Desktop/Wednesday 1402 room 1.27 VIPER"	"no"	"mono"	"no"	"24"	"no"	"black"	"no"	"yes"	"male"	"768"	"No"	"no"	"no"	"no"	"legacy"	"0"	"0"	"C:/Users/standalone/Desktop/Wednesday 1402 room 1.27 VIPER/subject-73.csv"	"[member1]"	"2"	"5"	"6"	"3"	"1"	"4"	"xpyriment"	"Jazzy James"	"3.1.6"	"0"	"2"	"legacy"	"1024"	"2"	"48000"	"-16"	"experiment"	"73"	"odd"	"legacy"	"[target1]"	"present"	"absent"	NA	"3781"	NA	NA	"3781"	NA	"53267"	NA	NA	NA	NA	NA	"3700"	"3775"	"3779"	"48815"	NA	NA	"4232"	"3849"	"3820"	"3849"	"4232"	"53267"	NA	"3779"	"3781"	NA	NA	NA	NA	"3702"	"3700"	"3702"	"30547"	"lineup1"	"no"	"1"	"no"	"1366"
"88"	""	"white"	"no"	"xpyriment"	"legacy"	"legacy"	"0"	"no"	"relative"	"0"	"0"	"0"	"0"	"0"	"1"	"1"	"0"	"0"	"0"	"1"	"0"	"0"	"0"	"0"	"1"	"0"	"0"	"1"	"0"	"0"	"0"	"1"	"5"	"0"	"0"	"0"	"0"	"0"	"0"	"0"	"0"	"0"	"0"	"1"	"02/14/18 15:20:03"	"Executes Python code"	"yes"	""	"lineup_videoVIPER_W.osexp"	"C:/Users/standalone/Desktop/Wednesday 1402 room 1.27 VIPER"	"no"	"mono"	"no"	"24"	"no"	"black"	"no"	"yes"	"male"	"768"	"No"	"no"	"no"	"no"	"legacy"	"1"	"0"	"C:/Users/standalone/Desktop/Wednesday 1402 room 1.27 VIPER/subject-73.csv"	"[member2]"	"2"	"5"	"6"	"3"	"1"	"4"	"xpyriment"	"Jazzy James"	"3.1.6"	"0"	"2"	"legacy"	"1024"	"2"	"48000"	"-16"	"experiment"	"73"	"odd"	"legacy"	"[target1]"	"present"	"absent"	NA	"3781"	NA	NA	"3781"	NA	"73463"	NA	NA	NA	NA	NA	"3700"	"3775"	"3779"	"69849"	NA	NA	"4232"	"3849"	"3820"	"3849"	"53553"	"73463"	NA	"3779"	"3781"	NA	NA	NA	NA	"3702"	"3700"	"3702"	"53553"	"lineup1"	"no"	"2"	"no"	"1366"
"89"	""	"white"	"no"	"xpyriment"	"legacy"	"legacy"	"0"	"70"	"relative"	"0"	"0"	"0"	"0"	"0"	"2"	"2"	"0"	"0"	"0"	"2"	"0"	"0"	"0"	"0"	"2"	"0"	"0"	"2"	"0"	"0"	"0"	"2"	"6"	"0"	"0"	"0"	"0"	"0"	"0"	"0"	"0"	"0"	"0"	"2"	"02/14/18 15:20:03"	"Executes Python code"	"yes"	""	"lineup_videoVIPER_W.osexp"	"C:/Users/standalone/Desktop/Wednesday 1402 room 1.27 VIPER"	"no"	"mono"	"no"	"24"	"no"	"black"	"no"	"yes"	"male"	"768"	"Yes"	"no"	"no"	"no"	"legacy"	"2"	"0"	"C:/Users/standalone/Desktop/Wednesday 1402 room 1.27 VIPER/subject-73.csv"	"[member3]"	"2"	"5"	"6"	"3"	"1"	"4"	"xpyriment"	"Jazzy James"	"3.1.6"	"0"	"2"	"legacy"	"1024"	"2"	"48000"	"-16"	"experiment"	"73"	"odd"	"legacy"	"[target1]"	"present"	"absent"	NA	"3781"	NA	NA	"3781"	"107597"	"92749"	NA	NA	NA	"92749"	NA	"3700"	"3775"	"3779"	"89326"	NA	NA	"4232"	"3849"	"3820"	"3849"	"73732"	"107597"	NA	"3779"	"3781"	NA	NA	NA	NA	"3702"	"3700"	"3702"	"73732"	"lineup1"	"no"	"3"	"no"	"1366"
"90"	""	"white"	"no"	"xpyriment"	"legacy"	"legacy"	"0"	"no"	"relative"	"0"	"0"	"0"	"0"	"0"	"3"	"3"	"0"	"0"	"0"	"3"	"0"	"0"	"0"	"0"	"3"	"0"	"0"	"3"	"0"	"0"	"0"	"3"	"7"	"0"	"0"	"0"	"0"	"0"	"0"	"0"	"0"	"0"	"0"	"3"	"02/14/18 15:20:03"	"Executes Python code"	"yes"	""	"lineup_videoVIPER_W.osexp"	"C:/Users/standalone/Desktop/Wednesday 1402 room 1.27 VIPER"	"no"	"mono"	"no"	"24"	"no"	"black"	"no"	"yes"	"male"	"768"	"No"	"no"	"no"	"no"	"legacy"	"3"	"0"	"C:/Users/standalone/Desktop/Wednesday 1402 room 1.27 VIPER/subject-73.csv"	"[member4]"	"2"	"5"	"6"	"3"	"1"	"4"	"xpyriment"	"Jazzy James"	"3.1.6"	"0"	"2"	"legacy"	"1024"	"2"	"48000"	"-16"	"experiment"	"73"	"odd"	"legacy"	"[target1]"	"present"	"absent"	NA	"3781"	NA	NA	"3781"	"107597"	"117388"	NA	NA	NA	"92749"	NA	"3700"	"3775"	"3779"	"113345"	NA	NA	"4232"	"3849"	"3820"	"3849"	"107870"	"117388"	NA	"3779"	"3781"	NA	NA	NA	NA	"3702"	"3700"	"3702"	"107870"	"lineup1"	"no"	"4"	"no"	"1366"
"91"	""	"white"	"no"	"xpyriment"	"legacy"	"legacy"	"0"	"no"	"relative"	"0"	"0"	"0"	"0"	"0"	"4"	"4"	"0"	"0"	"0"	"4"	"0"	"0"	"0"	"0"	"4"	"0"	"0"	"4"	"0"	"0"	"0"	"4"	"8"	"0"	"0"	"0"	"0"	"0"	"0"	"0"	"0"	"0"	"0"	"4"	"02/14/18 15:20:03"	"Executes Python code"	"yes"	""	"lineup_videoVIPER_W.osexp"	"C:/Users/standalone/Desktop/Wednesday 1402 room 1.27 VIPER"	"no"	"mono"	"no"	"24"	"no"	"black"	"no"	"yes"	"male"	"768"	"No"	"no"	"no"	"no"	"legacy"	"4"	"0"	"C:/Users/standalone/Desktop/Wednesday 1402 room 1.27 VIPER/subject-73.csv"	"[member5]"	"2"	"5"	"6"	"3"	"1"	"4"	"xpyriment"	"Jazzy James"	"3.1.6"	"0"	"2"	"legacy"	"1024"	"2"	"48000"	"-16"	"experiment"	"73"	"odd"	"legacy"	"[target1]"	"present"	"absent"	NA	"3781"	NA	NA	"3781"	"107597"	"124833"	NA	NA	NA	"92749"	NA	"3700"	"3775"	"3779"	"120848"	NA	NA	"4232"	"3849"	"3820"	"3849"	"117660"	"124833"	NA	"3779"	"3781"	NA	NA	NA	NA	"3702"	"3700"	"3702"	"117660"	"lineup1"	"no"	"5"	"no"	"1366"
"92"	""	"white"	"no"	"xpyriment"	"legacy"	"legacy"	"0"	"no"	"relative"	"0"	"0"	"0"	"0"	"0"	"5"	"5"	"0"	"0"	"0"	"5"	"0"	"0"	"0"	"0"	"5"	"0"	"0"	"5"	"0"	"0"	"0"	"5"	"9"	"0"	"0"	"0"	"0"	"0"	"0"	"0"	"0"	"0"	"0"	"5"	"02/14/18 15:20:03"	"Executes Python code"	"yes"	""	"lineup_videoVIPER_W.osexp"	"C:/Users/standalone/Desktop/Wednesday 1402 room 1.27 VIPER"	"no"	"mono"	"no"	"24"	"no"	"black"	"no"	"yes"	"male"	"768"	"No"	"no"	"no"	"no"	"legacy"	"5"	"0"	"C:/Users/standalone/Desktop/Wednesday 1402 room 1.27 VIPER/subject-73.csv"	"[member6]"	"2"	"5"	"6"	"3"	"1"	"4"	"xpyriment"	"Jazzy James"	"3.1.6"	"0"	"2"	"legacy"	"1024"	"2"	"48000"	"-16"	"experiment"	"73"	"odd"	"legacy"	"[target1]"	"present"	"absent"	NA	"3781"	NA	NA	"3781"	"107597"	"133444"	NA	NA	NA	"92749"	NA	"3700"	"3775"	"3779"	"129800"	NA	NA	"4232"	"3849"	"3820"	"3849"	"125132"	"133444"	NA	"3779"	"3781"	NA	NA	NA	NA	"3702"	"3700"	"3702"	"125132"	"lineup1"	"no"	"6"	"no"	"1366"
"93"	""	"white"	"no"	"xpyriment"	"legacy"	"legacy"	"0"	"no"	"relative"	"0"	"0"	"0"	"0"	"0"	"5"	"5"	"0"	"0"	"0"	"5"	"0"	"0"	"0"	"0"	"5"	"0"	"0"	"5"	"0"	"0"	"0"	"5"	"9"	"0"	"0"	"0"	"0"	"0"	"0"	"0"	"0"	"0"	"0"	"5"	"02/14/18 15:20:03"	"Executes Python code"	"yes"	""	"lineup_videoVIPER_W.osexp"	"C:/Users/standalone/Desktop/Wednesday 1402 room 1.27 VIPER"	"no"	"mono"	"no"	"24"	"no"	"black"	"no"	"yes"	"male"	"768"	"No"	"Yes"	"One"	"No"	"legacy"	"5"	"0"	"C:/Users/standalone/Desktop/Wednesday 1402 room 1.27 VIPER/subject-73.csv"	"[member6]"	"2"	"5"	"6"	"3"	"1"	"4"	"xpyriment"	"Jazzy James"	"3.1.6"	"0"	"2"	"legacy"	"1024"	"2"	"48000"	"-16"	"experiment"	"73"	"odd"	"legacy"	"[target1]"	"present"	"absent"	NA	"3781"	"144652"	NA	"3781"	"107597"	"133444"	"138835"	"144652"	"151306"	"92749"	NA	"3700"	"3775"	"3779"	"129800"	NA	NA	"4232"	"3849"	"3820"	"3849"	"125132"	"151306"	"133486"	"3779"	"3781"	"138835"	"148588"	NA	NA	"3702"	"3700"	"3702"	"125132"	"lineup1"	"no"	"6"	"no"	"1366"
"94"	""	"white"	"no"	"xpyriment"	"legacy"	"legacy"	"0"	"no"	"relative"	"2"	"2"	"0"	"2"	"2"	"5"	"5"	"0"	"0"	"0"	"5"	"0"	"0"	"0"	"1"	"5"	"0"	"0"	"5"	"0"	"1"	"0"	"5"	"11"	"0"	"1"	"2"	"0"	"0"	"0"	"0"	"0"	"0"	"0"	"5"	"02/14/18 15:20:03"	"Executes Python code"	"yes"	""	"lineup_videoVIPER_W.osexp"	"C:/Users/standalone/Desktop/Wednesday 1402 room 1.27 VIPER"	"no"	"mono"	"no"	"24"	"no"	"black"	"no"	"yes"	"female"	"768"	"No"	"Yes"	"One"	"No"	"legacy"	"0"	"0"	"C:/Users/standalone/Desktop/Wednesday 1402 room 1.27 VIPER/subject-73.csv"	"[member6]"	"4"	"7"	"1"	"5"	"2"	"3"	"xpyriment"	"Jazzy James"	"3.1.6"	"0"	"2"	"legacy"	"1024"	"2"	"48000"	"-16"	"experiment"	"73"	"odd"	"legacy"	"[target2]"	"present"	"absent"	"151381"	"3781"	"144652"	"151381"	"3781"	"107597"	"133444"	"138835"	"144652"	"151306"	"92749"	NA	"3700"	"3775"	"151376"	"129800"	NA	NA	"4232"	"3849"	"3820"	"3849"	"125132"	"151382"	"133486"	"151376"	"151381"	"138835"	"148588"	NA	NA	"3702"	"3700"	"3702"	"125132"	"lineup1"	"no"	"6"	"no"	"1366"
"95"	""	"white"	"no"	"xpyriment"	"legacy"	"legacy"	"0"	"no"	"relative"	"2"	"2"	"0"	"2"	"2"	"5"	"5"	"0"	"0"	"0"	"5"	"0"	"0"	"0"	"1"	"5"	"0"	"0"	"5"	"0"	"1"	"0"	"5"	"11"	"0"	"1"	"2"	"0"	"0"	"0"	"0"	"0"	"0"	"0"	"5"	"02/14/18 15:20:03"	"Executes Python code"	"yes"	""	"lineup_videoVIPER_W.osexp"	"C:/Users/standalone/Desktop/Wednesday 1402 room 1.27 VIPER"	"no"	"mono"	"no"	"24"	"no"	"black"	"no"	"yes"	"female"	"768"	"No"	"Yes"	"One"	"No"	"legacy"	"0"	"0"	"C:/Users/standalone/Desktop/Wednesday 1402 room 1.27 VIPER/subject-73.csv"	"[member6]"	"4"	"7"	"1"	"5"	"2"	"3"	"xpyriment"	"Jazzy James"	"3.1.6"	"0"	"2"	"legacy"	"1024"	"2"	"48000"	"-16"	"experiment"	"73"	"odd"	"legacy"	"[target2]"	"present"	"absent"	"151381"	"3781"	"144652"	"151381"	"3781"	"107597"	"133444"	"138835"	"144652"	"151306"	"92749"	NA	"3700"	"3775"	"151376"	"129800"	NA	NA	"4232"	"3849"	"3820"	"3849"	"125132"	"151423"	"133486"	"151376"	"151381"	"138835"	"148588"	NA	NA	"3702"	"3700"	"3702"	"125132"	"lineup1"	"no"	"6"	"no"	"1366"
"96"	""	"white"	"no"	"xpyriment"	"legacy"	"legacy"	"0"	"no"	"relative"	"2"	"2"	"1"	"2"	"2"	"6"	"6"	"1"	"1"	"1"	"6"	"0"	"0"	"0"	"1"	"6"	"1"	"1"	"6"	"1"	"1"	"1"	"6"	"13"	"1"	"1"	"2"	"1"	"1"	"1"	"1"	"0"	"0"	"0"	"6"	"02/14/18 15:20:03"	"Executes Python code"	"yes"	""	"lineup_videoVIPER_W.osexp"	"C:/Users/standalone/Desktop/Wednesday 1402 room 1.27 VIPER"	"no"	"mono"	"no"	"24"	"no"	"black"	"no"	"yes"	"female"	"768"	"No"	"no"	"no"	"no"	"legacy"	"0"	"0"	"C:/Users/standalone/Desktop/Wednesday 1402 room 1.27 VIPER/subject-73.csv"	"[member1]"	"4"	"7"	"1"	"5"	"2"	"3"	"xpyriment"	"Jazzy James"	"3.1.6"	"0"	"2"	"legacy"	"1024"	"2"	"48000"	"-16"	"experiment"	"73"	"odd"	"legacy"	"[target2]"	"present"	"absent"	"151381"	"3781"	"144652"	"151381"	"3781"	"107597"	"161989"	"138835"	"144652"	"151306"	"92749"	NA	"3700"	"3775"	"151376"	"158766"	NA	NA	"151722"	"151489"	"151458"	"151489"	"151722"	"161990"	"133486"	"151376"	"151381"	"138835"	"148588"	NA	NA	"3702"	"3700"	"3702"	"155785"	"lineup1"	"no"	"1"	"no"	"1366"
"97"	""	"white"	"no"	"xpyriment"	"legacy"	"legacy"	"0"	"no"	"relative"	"2"	"2"	"1"	"2"	"2"	"7"	"7"	"1"	"1"	"1"	"7"	"0"	"0"	"0"	"1"	"7"	"1"	"1"	"7"	"1"	"1"	"1"	"7"	"14"	"1"	"1"	"2"	"1"	"1"	"1"	"1"	"0"	"0"	"0"	"7"	"02/14/18 15:20:03"	"Executes Python code"	"yes"	""	"lineup_videoVIPER_W.osexp"	"C:/Users/standalone/Desktop/Wednesday 1402 room 1.27 VIPER"	"no"	"mono"	"no"	"24"	"no"	"black"	"no"	"yes"	"female"	"768"	"No"	"no"	"no"	"no"	"legacy"	"1"	"0"	"C:/Users/standalone/Desktop/Wednesday 1402 room 1.27 VIPER/subject-73.csv"	"[member2]"	"4"	"7"	"1"	"5"	"2"	"3"	"xpyriment"	"Jazzy James"	"3.1.6"	"0"	"2"	"legacy"	"1024"	"2"	"48000"	"-16"	"experiment"	"73"	"odd"	"legacy"	"[target2]"	"present"	"absent"	"151381"	"3781"	"144652"	"151381"	"3781"	"107597"	"177205"	"138835"	"144652"	"151306"	"92749"	NA	"3700"	"3775"	"151376"	"171961"	NA	NA	"151722"	"151489"	"151458"	"151489"	"162272"	"177205"	"133486"	"151376"	"151381"	"138835"	"148588"	NA	NA	"3702"	"3700"	"3702"	"162272"	"lineup1"	"no"	"2"	"no"	"1366"
"98"	""	"white"	"no"	"xpyriment"	"legacy"	"legacy"	"0"	"no"	"relative"	"2"	"2"	"1"	"2"	"2"	"8"	"8"	"1"	"1"	"1"	"8"	"0"	"0"	"0"	"1"	"8"	"1"	"1"	"8"	"1"	"1"	"1"	"8"	"15"	"1"	"1"	"2"	"1"	"1"	"1"	"1"	"0"	"0"	"0"	"8"	"02/14/18 15:20:03"	"Executes Python code"	"yes"	""	"lineup_videoVIPER_W.osexp"	"C:/Users/standalone/Desktop/Wednesday 1402 room 1.27 VIPER"	"no"	"mono"	"no"	"24"	"no"	"black"	"no"	"yes"	"female"	"768"	"Not sure"	"no"	"no"	"no"	"legacy"	"2"	"0"	"C:/Users/standalone/Desktop/Wednesday 1402 room 1.27 VIPER/subject-73.csv"	"[member3]"	"4"	"7"	"1"	"5"	"2"	"3"	"xpyriment"	"Jazzy James"	"3.1.6"	"0"	"2"	"legacy"	"1024"	"2"	"48000"	"-16"	"experiment"	"73"	"odd"	"legacy"	"[target2]"	"present"	"absent"	"151381"	"3781"	"144652"	"151381"	"3781"	"107597"	"190227"	"138835"	"144652"	"151306"	"92749"	NA	"3700"	"3775"	"151376"	"185986"	NA	NA	"151722"	"151489"	"151458"	"151489"	"177479"	"190227"	"133486"	"151376"	"151381"	"138835"	"148588"	NA	NA	"3702"	"3700"	"3702"	"177479"	"lineup1"	"no"	"3"	"no"	"1366"
"99"	""	"white"	"no"	"xpyriment"	"legacy"	"legacy"	"0"	"no"	"relative"	"2"	"2"	"1"	"2"	"2"	"9"	"9"	"1"	"1"	"1"	"9"	"0"	"0"	"0"	"1"	"9"	"1"	"1"	"9"	"1"	"1"	"1"	"9"	"16"	"1"	"1"	"2"	"1"	"1"	"1"	"1"	"0"	"0"	"0"	"9"	"02/14/18 15:20:03"	"Executes Python code"	"yes"	""	"lineup_videoVIPER_W.osexp"	"C:/Users/standalone/Desktop/Wednesday 1402 room 1.27 VIPER"	"no"	"mono"	"no"	"24"	"no"	"black"	"no"	"yes"	"female"	"768"	"No"	"no"	"no"	"no"	"legacy"	"3"	"0"	"C:/Users/standalone/Desktop/Wednesday 1402 room 1.27 VIPER/subject-73.csv"	"[member4]"	"4"	"7"	"1"	"5"	"2"	"3"	"xpyriment"	"Jazzy James"	"3.1.6"	"0"	"2"	"legacy"	"1024"	"2"	"48000"	"-16"	"experiment"	"73"	"odd"	"legacy"	"[target2]"	"present"	"absent"	"151381"	"3781"	"144652"	"151381"	"3781"	"107597"	"204242"	"138835"	"144652"	"151306"	"92749"	NA	"3700"	"3775"	"151376"	"201180"	NA	NA	"151722"	"151489"	"151458"	"151489"	"190511"	"204242"	"133486"	"151376"	"151381"	"138835"	"148588"	NA	NA	"3702"	"3700"	"3702"	"190511"	"lineup1"	"no"	"4"	"no"	"1366"
"100"	""	"white"	"no"	"xpyriment"	"legacy"	"legacy"	"0"	"50"	"relative"	"2"	"2"	"1"	"2"	"2"	"10"	"10"	"1"	"1"	"1"	"10"	"0"	"0"	"0"	"1"	"10"	"1"	"1"	"10"	"1"	"1"	"1"	"10"	"17"	"1"	"1"	"2"	"1"	"1"	"1"	"1"	"0"	"0"	"0"	"10"	"02/14/18 15:20:03"	"Executes Python code"	"yes"	""	"lineup_videoVIPER_W.osexp"	"C:/Users/standalone/Desktop/Wednesday 1402 room 1.27 VIPER"	"no"	"mono"	"no"	"24"	"no"	"black"	"no"	"yes"	"female"	"768"	"Yes"	"no"	"no"	"no"	"legacy"	"4"	"0"	"C:/Users/standalone/Desktop/Wednesday 1402 room 1.27 VIPER/subject-73.csv"	"[member5]"	"4"	"7"	"1"	"5"	"2"	"3"	"xpyriment"	"Jazzy James"	"3.1.6"	"0"	"2"	"legacy"	"1024"	"2"	"48000"	"-16"	"experiment"	"73"	"odd"	"legacy"	"[target2]"	"present"	"absent"	"151381"	"3781"	"144652"	"151381"	"3781"	"232945"	"226657"	"138835"	"144652"	"151306"	"226657"	NA	"3700"	"3775"	"151376"	"219233"	NA	NA	"151722"	"151489"	"151458"	"151489"	"204515"	"232945"	"133486"	"151376"	"151381"	"138835"	"148588"	NA	NA	"3702"	"3700"	"3702"	"204516"	"lineup1"	"no"	"5"	"no"	"1366"
"101"	""	"white"	"no"	"xpyriment"	"legacy"	"legacy"	"0"	"no"	"relative"	"2"	"2"	"1"	"2"	"2"	"11"	"11"	"1"	"1"	"1"	"11"	"0"	"0"	"0"	"1"	"11"	"1"	"1"	"11"	"1"	"1"	"1"	"11"	"18"	"1"	"1"	"2"	"1"	"1"	"1"	"1"	"0"	"0"	"0"	"11"	"02/14/18 15:20:03"	"Executes Python code"	"yes"	""	"lineup_videoVIPER_W.osexp"	"C:/Users/standalone/Desktop/Wednesday 1402 room 1.27 VIPER"	"no"	"mono"	"no"	"24"	"no"	"black"	"no"	"yes"	"female"	"768"	"No"	"no"	"no"	"no"	"legacy"	"5"	"0"	"C:/Users/standalone/Desktop/Wednesday 1402 room 1.27 VIPER/subject-73.csv"	"[member6]"	"4"	"7"	"1"	"5"	"2"	"3"	"xpyriment"	"Jazzy James"	"3.1.6"	"0"	"2"	"legacy"	"1024"	"2"	"48000"	"-16"	"experiment"	"73"	"odd"	"legacy"	"[target2]"	"present"	"absent"	"151381"	"3781"	"144652"	"151381"	"3781"	"232945"	"242001"	"138835"	"144652"	"151306"	"226657"	NA	"3700"	"3775"	"151376"	"238741"	NA	NA	"151722"	"151489"	"151458"	"151489"	"233233"	"242001"	"133486"	"151376"	"151381"	"138835"	"148588"	NA	NA	"3702"	"3700"	"3702"	"233233"	"lineup1"	"no"	"6"	"no"	"1366"
"102"	""	"white"	"no"	"xpyriment"	"legacy"	"legacy"	"0"	"no"	"relative"	"2"	"2"	"1"	"2"	"2"	"11"	"11"	"1"	"1"	"1"	"11"	"0"	"0"	"0"	"1"	"11"	"1"	"1"	"11"	"1"	"1"	"1"	"11"	"18"	"1"	"1"	"2"	"1"	"1"	"1"	"1"	"0"	"0"	"0"	"11"	"02/14/18 15:20:03"	"Executes Python code"	"yes"	""	"lineup_videoVIPER_W.osexp"	"C:/Users/standalone/Desktop/Wednesday 1402 room 1.27 VIPER"	"no"	"mono"	"no"	"24"	"no"	"black"	"no"	"yes"	"female"	"768"	"No"	"Yes"	"One"	"No"	"legacy"	"5"	"0"	"C:/Users/standalone/Desktop/Wednesday 1402 room 1.27 VIPER/subject-73.csv"	"[member6]"	"4"	"7"	"1"	"5"	"2"	"3"	"xpyriment"	"Jazzy James"	"3.1.6"	"0"	"2"	"legacy"	"1024"	"2"	"48000"	"-16"	"experiment"	"73"	"odd"	"legacy"	"[target2]"	"present"	"absent"	"151381"	"3781"	"254103"	"151381"	"3781"	"232945"	"242001"	"245632"	"254102"	"260193"	"226657"	NA	"3700"	"3775"	"151376"	"238741"	NA	NA	"151722"	"151489"	"151458"	"151489"	"233233"	"260193"	"242063"	"151376"	"151381"	"245632"	"256807"	NA	NA	"3702"	"3700"	"3702"	"233233"	"lineup1"	"no"	"6"	"no"	"1366"
