"_prepare","background","bidi","canvas_backend","clock_backend","color_backend","compensation","confidence_immediate","coordinates","count_TA_sequence_setting","count_TP_sequence_setting","count_admin_check","count_check_TP","count_check_confidence_imm","count_check_identification","count_check_made_identification","count_check_multiple_identification","count_check_proceeding_identification","count_check_time_of_exposure","count_confidence_imm","count_end_of_experiment","count_experiment","count_gender_lineup_loop","count_gender_randomization_sequence","count_identification_task","count_instructions_after_multiple","count_instructions_after_proceed_identification","count_instructions_before_view","count_lineup_loop","count_lineup_procedure_loop","count_lineup_procedure_sequence","count_lineup_sequence","count_logger","count_made_identification","count_member_randomization_loop","count_member_randomization_sequence","count_multiple_identification","count_proceed_identification","count_repeat_lineup_sequence_identification","count_repeat_lineup_sequence_multiple","count_target_setting","count_target_setting_loop","count_target_setting_sequence","count_time_of_exposure","count_video","datetime","description","disable_garbage_collection","empty_column","experiment_file","experiment_path","font_bold","font_family","font_italic","font_size","font_underline","foreground","form_clicks","fullscreen","gender","height","identification","identification_made","identification_multiple","identification_proceed","keyboard_backend","lecture_time","live_row","live_row_target_setting_loop","logfile","member","member1","member2","member3","member4","member5","member6","mouse_backend","opensesame_codename","opensesame_version","repeat_cycle","round_decimals","sampler_backend","sound_buf_size","sound_channels","sound_freq","sound_sample_size","start","subject_nr","subject_parity","synth_backend","target","target1","target2","time_TA_sequence_setting","time_TP_sequence_setting","time_admin_check","time_check_TP","time_check_confidence_imm","time_check_identification","time_check_made_identification","time_check_multiple_identification","time_check_proceeding_identification","time_check_time_of_exposure","time_confidence_imm","time_end_of_experiment","time_experiment","time_gender_lineup_loop","time_gender_randomization_sequence","time_identification_task","time_instructions_after_multiple","time_instructions_after_proceed_identification","time_instructions_before_view","time_lineup_loop","time_lineup_procedure_loop","time_lineup_procedure_sequence","time_lineup_sequence","time_logger","time_made_identification","time_member_randomization_loop","time_member_randomization_sequence","time_multiple_identification","time_proceed_identification","time_repeat_lineup_sequence_identification","time_repeat_lineup_sequence_multiple","time_target_setting","time_target_setting_loop","time_target_setting_sequence","time_time_of_exposure","time_video","title","transparent_variables","trial","uniform_coordinates","width"
"","white","no","xpyriment","legacy","legacy","0","NA","relative","NA","NA","NA","NA","NA","NA","NA","NA","NA","0","NA","0","0","0","NA","NA","NA","NA","NA","NA","NA","NA","NA","1","NA","NA","NA","NA","NA","NA","NA","0","0","0","0","NA","11/04/17 13:47:34","Executes Python code","yes","","lineup_videoFB.osexp","C:/Users/standalone/Desktop/Full Body Video 0411","no","mono","no","24","no","black","no","yes","NA","768","NA","NA","NA","NA","legacy","no","0","0","C:/Users/standalone/Desktop/Full Body Video 0411/subject-20.csv","NA","NA","NA","NA","NA","NA","NA","xpyriment","Jazzy James","3.1.6","0","2","legacy","1024","2","48000","-16","experiment","20","even","legacy","NA","absent","present","NA","NA","NA","NA","NA","NA","NA","NA","NA","NA","NA","NA","3311","NA","NA","NA","NA","NA","NA","NA","NA","NA","NA","3313","NA","NA","NA","NA","NA","NA","NA","3313","3312","3313","NA","NA","lineup1","no","NA","no","1366"
"","white","no","xpyriment","legacy","legacy","0","NA","relative","1","1","NA","1","NA","NA","NA","NA","NA","0","NA","0","0","0","0","NA","NA","NA","NA","NA","0","NA","NA","3","NA","0","1","NA","NA","NA","NA","0","0","0","0","NA","11/04/17 13:47:34","Executes Python code","yes","","lineup_videoFB.osexp","C:/Users/standalone/Desktop/Full Body Video 0411","no","mono","no","24","no","black","no","yes","female","768","NA","NA","NA","NA","legacy","no","0","0","C:/Users/standalone/Desktop/Full Body Video 0411/subject-20.csv","NA","3","5","2","1","6","4","xpyriment","Jazzy James","3.1.6","0","2","legacy","1024","2","48000","-16","experiment","20","even","legacy","[target2]","absent","present","NA","3385","NA","3385","NA","NA","NA","NA","NA","NA","NA","NA","3311","3377","3381","NA","NA","NA","NA","NA","NA","NA","NA","3385","NA","3381","3385","NA","NA","NA","NA","3313","3312","3313","NA","NA","lineup1","no","NA","no","1366"
"","white","no","xpyriment","legacy","legacy","0","NA","relative","1","1","NA","1","NA","NA","NA","NA","NA","0","NA","0","0","0","0","NA","NA","NA","NA","NA","0","NA","NA","3","NA","0","1","NA","NA","NA","NA","0","0","0","0","NA","11/04/17 13:47:34","Executes Python code","yes","","lineup_videoFB.osexp","C:/Users/standalone/Desktop/Full Body Video 0411","no","mono","no","24","no","black","no","yes","female","768","NA","NA","NA","NA","legacy","no","0","0","C:/Users/standalone/Desktop/Full Body Video 0411/subject-20.csv","NA","3","5","2","1","6","4","xpyriment","Jazzy James","3.1.6","0","2","legacy","1024","2","48000","-16","experiment","20","even","legacy","[target2]","absent","present","NA","3385","NA","3385","NA","NA","NA","NA","NA","NA","NA","NA","3311","3377","3381","NA","NA","NA","NA","NA","NA","NA","NA","3437","NA","3381","3385","NA","NA","NA","NA","3313","3312","3313","NA","NA","lineup1","no","NA","no","1366"
"","white","no","xpyriment","legacy","legacy","0","no","relative","1","1","0","1","0","0","0","0","0","0","0","0","0","0","0","0","0","0","0","0","0","0","0","5","0","0","1","0","0","0","0","0","0","0","0","0","11/04/17 13:47:34","Executes Python code","yes","","lineup_videoFB.osexp","C:/Users/standalone/Desktop/Full Body Video 0411","no","mono","no","24","no","black","no","yes","female","768","No","no","no","no","legacy","no","0","0","C:/Users/standalone/Desktop/Full Body Video 0411/subject-20.csv","[member1]","3","5","2","1","6","4","xpyriment","Jazzy James","3.1.6","0","2","legacy","1024","2","48000","-16","experiment","20","even","legacy","[target2]","absent","present","NA","3385","NA","3385","NA","70290","NA","NA","NA","NA","NA","NA","3311","3377","3381","66543","NA","NA","4681","3500","3476","3500","4681","70290","NA","3381","3385","NA","NA","NA","NA","3313","3312","3313","NA","40953","lineup1","no","1","no","1366"
"","white","no","xpyriment","legacy","legacy","0","no","relative","1","1","0","1","1","1","0","0","0","0","1","0","0","0","0","1","0","0","1","0","0","0","1","6","0","0","1","0","0","0","0","0","0","0","0","1","11/04/17 13:47:34","Executes Python code","yes","","lineup_videoFB.osexp","C:/Users/standalone/Desktop/Full Body Video 0411","no","mono","no","24","no","black","no","yes","female","768","No","no","no","no","legacy","no","1","0","C:/Users/standalone/Desktop/Full Body Video 0411/subject-20.csv","[member2]","3","5","2","1","6","4","xpyriment","Jazzy James","3.1.6","0","2","legacy","1024","2","48000","-16","experiment","20","even","legacy","[target2]","absent","present","NA","3385","NA","3385","NA","86463","NA","NA","NA","NA","NA","NA","3311","3377","3381","84543","NA","NA","4681","3500","3476","3500","71317","86463","NA","3381","3385","NA","NA","NA","NA","3313","3312","3313","NA","71317","lineup1","no","2","no","1366"
"","white","no","xpyriment","legacy","legacy","0","no","relative","1","1","0","1","2","2","0","0","0","0","2","0","0","0","0","2","0","0","2","0","0","0","2","7","0","0","1","0","0","0","0","0","0","0","0","2","11/04/17 13:47:34","Executes Python code","yes","","lineup_videoFB.osexp","C:/Users/standalone/Desktop/Full Body Video 0411","no","mono","no","24","no","black","no","yes","female","768","No","no","no","no","legacy","no","2","0","C:/Users/standalone/Desktop/Full Body Video 0411/subject-20.csv","[member3]","3","5","2","1","6","4","xpyriment","Jazzy James","3.1.6","0","2","legacy","1024","2","48000","-16","experiment","20","even","legacy","[target2]","absent","present","NA","3385","NA","3385","NA","116445","NA","NA","NA","NA","NA","NA","3311","3377","3381","109992","NA","NA","4681","3500","3476","3500","87519","116445","NA","3381","3385","NA","NA","NA","NA","3313","3312","3313","NA","87519","lineup1","no","3","no","1366"
"","white","no","xpyriment","legacy","legacy","0","no","relative","1","1","0","1","3","3","0","0","0","0","3","0","0","0","0","3","0","0","3","0","0","0","3","8","0","0","1","0","0","0","0","0","0","0","0","3","11/04/17 13:47:34","Executes Python code","yes","","lineup_videoFB.osexp","C:/Users/standalone/Desktop/Full Body Video 0411","no","mono","no","24","no","black","no","yes","female","768","No","no","no","no","legacy","no","3","0","C:/Users/standalone/Desktop/Full Body Video 0411/subject-20.csv","[member4]","3","5","2","1","6","4","xpyriment","Jazzy James","3.1.6","0","2","legacy","1024","2","48000","-16","experiment","20","even","legacy","[target2]","absent","present","NA","3385","NA","3385","NA","122347","NA","NA","NA","NA","NA","NA","3311","3377","3381","120649","NA","NA","4681","3500","3476","3500","117443","122347","NA","3381","3385","NA","NA","NA","NA","3313","3312","3313","NA","117443","lineup1","no","4","no","1366"
"","white","no","xpyriment","legacy","legacy","0","60","relative","1","1","0","1","4","4","0","0","0","0","4","0","0","0","0","4","0","0","4","0","0","0","4","9","0","0","1","0","0","0","0","0","0","0","0","4","11/04/17 13:47:34","Executes Python code","yes","","lineup_videoFB.osexp","C:/Users/standalone/Desktop/Full Body Video 0411","no","mono","no","24","no","black","no","yes","female","768","Yes","no","no","no","legacy","no","4","0","C:/Users/standalone/Desktop/Full Body Video 0411/subject-20.csv","[member5]","3","5","2","1","6","4","xpyriment","Jazzy James","3.1.6","0","2","legacy","1024","2","48000","-16","experiment","20","even","legacy","[target2]","absent","present","NA","3385","NA","3385","144972","133411","NA","NA","NA","NA","133411","NA","3311","3377","3381","131478","NA","NA","4681","3500","3476","3500","123417","144972","NA","3381","3385","NA","NA","NA","NA","3313","3312","3313","NA","123417","lineup1","no","5","no","1366"
"","white","no","xpyriment","legacy","legacy","0","no","relative","1","1","0","1","5","5","0","0","0","0","5","0","0","0","0","5","0","0","5","0","0","0","5","10","0","0","1","0","0","0","0","0","0","0","0","5","11/04/17 13:47:34","Executes Python code","yes","","lineup_videoFB.osexp","C:/Users/standalone/Desktop/Full Body Video 0411","no","mono","no","24","no","black","no","yes","female","768","No","no","no","no","legacy","no","5","0","C:/Users/standalone/Desktop/Full Body Video 0411/subject-20.csv","[member6]","3","5","2","1","6","4","xpyriment","Jazzy James","3.1.6","0","2","legacy","1024","2","48000","-16","experiment","20","even","legacy","[target2]","absent","present","NA","3385","NA","3385","144972","151916","NA","NA","NA","NA","133411","NA","3311","3377","3381","149295","NA","NA","4681","3500","3476","3500","146054","151916","NA","3381","3385","NA","NA","NA","NA","3313","3312","3313","NA","146054","lineup1","no","6","no","1366"
"","white","no","xpyriment","legacy","legacy","0","no","relative","1","1","0","1","5","5","0","0","0","0","5","0","0","0","0","5","0","0","5","0","0","0","5","10","0","0","1","0","0","0","0","0","0","0","0","5","11/04/17 13:47:34","Executes Python code","yes","","lineup_videoFB.osexp","C:/Users/standalone/Desktop/Full Body Video 0411","no","mono","no","24","no","black","no","yes","female","768","No","Yes","One","No","legacy","no","5","0","C:/Users/standalone/Desktop/Full Body Video 0411/subject-20.csv","[member6]","3","5","2","1","6","4","xpyriment","Jazzy James","3.1.6","0","2","legacy","1024","2","48000","-16","experiment","20","even","legacy","[target2]","absent","present","NA","3385","159014","3385","144972","151916","155400","159014","167798","NA","133411","NA","3311","3377","3381","149295","NA","NA","4681","3500","3476","3500","146054","167798","151962","3381","3385","155400","163359","NA","NA","3313","3312","3313","NA","146054","lineup1","no","6","no","1366"
"","white","no","xpyriment","legacy","legacy","0","no","relative","2","2","0","2","5","5","0","0","0","0","5","0","0","0","1","5","0","0","5","0","1","0","5","11","0","1","2","0","0","0","0","0","0","0","0","5","11/04/17 13:47:34","Executes Python code","yes","","lineup_videoFB.osexp","C:/Users/standalone/Desktop/Full Body Video 0411","no","mono","no","24","no","black","no","yes","male","768","No","Yes","One","No","legacy","no","0","0","C:/Users/standalone/Desktop/Full Body Video 0411/subject-20.csv","[member6]","3","2","4","5","1","7","xpyriment","Jazzy James","3.1.6","0","2","legacy","1024","2","48000","-16","experiment","20","even","legacy","[target1]","absent","present","167870","3385","159014","3385","144972","151916","155400","159014","167798","NA","133411","NA","3311","3377","167868","149295","NA","NA","4681","3500","3476","3500","146054","167870","151962","167868","167870","155400","163359","NA","NA","3313","3312","3313","NA","146054","lineup1","no","6","no","1366"
"","white","no","xpyriment","legacy","legacy","0","no","relative","2","2","1","2","6","6","1","1","1","0","6","0","0","0","1","6","1","1","6","1","1","1","6","13","1","1","2","1","1","1","1","0","0","0","0","6","11/04/17 13:47:34","Executes Python code","yes","","lineup_videoFB.osexp","C:/Users/standalone/Desktop/Full Body Video 0411","no","mono","no","24","no","black","no","yes","male","768","No","no","no","no","legacy","no","0","0","C:/Users/standalone/Desktop/Full Body Video 0411/subject-20.csv","[member1]","3","2","4","5","1","7","xpyriment","Jazzy James","3.1.6","0","2","legacy","1024","2","48000","-16","experiment","20","even","legacy","[target1]","absent","present","167870","3385","159014","3385","144972","176114","155400","159014","167798","NA","133411","NA","3311","3377","167868","174270","NA","NA","168940","167923","167899","167923","168940","176114","151962","167868","167870","155400","163359","NA","NA","3313","3312","3313","NA","173067","lineup1","no","1","no","1366"
"","white","no","xpyriment","legacy","legacy","0","no","relative","2","2","1","2","7","7","1","1","1","0","7","0","0","0","1","7","1","1","7","1","1","1","7","14","1","1","2","1","1","1","1","0","0","0","0","7","11/04/17 13:47:34","Executes Python code","yes","","lineup_videoFB.osexp","C:/Users/standalone/Desktop/Full Body Video 0411","no","mono","no","24","no","black","no","yes","male","768","No","no","no","no","legacy","no","1","0","C:/Users/standalone/Desktop/Full Body Video 0411/subject-20.csv","[member2]","3","2","4","5","1","7","xpyriment","Jazzy James","3.1.6","0","2","legacy","1024","2","48000","-16","experiment","20","even","legacy","[target1]","absent","present","167870","3385","159014","3385","144972","180353","155400","159014","167798","NA","133411","NA","3311","3377","167868","178341","NA","NA","168940","167923","167899","167923","177187","180353","151962","167868","167870","155400","163359","NA","NA","3313","3312","3313","NA","177188","lineup1","no","2","no","1366"
"","white","no","xpyriment","legacy","legacy","0","no","relative","2","2","1","2","8","8","1","1","1","0","8","0","0","0","1","8","1","1","8","1","1","1","8","15","1","1","2","1","1","1","1","0","0","0","0","8","11/04/17 13:47:34","Executes Python code","yes","","lineup_videoFB.osexp","C:/Users/standalone/Desktop/Full Body Video 0411","no","mono","no","24","no","black","no","yes","male","768","No","no","no","no","legacy","no","2","0","C:/Users/standalone/Desktop/Full Body Video 0411/subject-20.csv","[member3]","3","2","4","5","1","7","xpyriment","Jazzy James","3.1.6","0","2","legacy","1024","2","48000","-16","experiment","20","even","legacy","[target1]","absent","present","167870","3385","159014","3385","144972","186777","155400","159014","167798","NA","133411","NA","3311","3377","167868","184744","NA","NA","168940","167923","167899","167923","181432","186777","151962","167868","167870","155400","163359","NA","NA","3313","3312","3313","NA","181432","lineup1","no","3","no","1366"
"","white","no","xpyriment","legacy","legacy","0","no","relative","2","2","1","2","9","9","1","1","1","0","9","0","0","0","1","9","1","1","9","1","1","1","9","16","1","1","2","1","1","1","1","0","0","0","0","9","11/04/17 13:47:34","Executes Python code","yes","","lineup_videoFB.osexp","C:/Users/standalone/Desktop/Full Body Video 0411","no","mono","no","24","no","black","no","yes","male","768","No","no","no","no","legacy","no","3","0","C:/Users/standalone/Desktop/Full Body Video 0411/subject-20.csv","[member4]","3","2","4","5","1","7","xpyriment","Jazzy James","3.1.6","0","2","legacy","1024","2","48000","-16","experiment","20","even","legacy","[target1]","absent","present","167870","3385","159014","3385","144972","190496","155400","159014","167798","NA","133411","NA","3311","3377","167868","188670","NA","NA","168940","167923","167899","167923","187845","190496","151962","167868","167870","155400","163359","NA","NA","3313","3312","3313","NA","187845","lineup1","no","4","no","1366"
"","white","no","xpyriment","legacy","legacy","0","no","relative","2","2","1","2","10","10","1","1","1","0","10","0","0","0","1","10","1","1","10","1","1","1","10","17","1","1","2","1","1","1","1","0","0","0","0","10","11/04/17 13:47:34","Executes Python code","yes","","lineup_videoFB.osexp","C:/Users/standalone/Desktop/Full Body Video 0411","no","mono","no","24","no","black","no","yes","male","768","No","no","no","no","legacy","no","4","0","C:/Users/standalone/Desktop/Full Body Video 0411/subject-20.csv","[member5]","3","2","4","5","1","7","xpyriment","Jazzy James","3.1.6","0","2","legacy","1024","2","48000","-16","experiment","20","even","legacy","[target1]","absent","present","167870","3385","159014","3385","144972","204541","155400","159014","167798","NA","133411","NA","3311","3377","167868","202623","NA","NA","168940","167923","167899","167923","191582","204541","151962","167868","167870","155400","163359","NA","NA","3313","3312","3313","NA","191583","lineup1","no","5","no","1366"
"","white","no","xpyriment","legacy","legacy","0","no","relative","2","2","1","2","11","11","1","1","1","0","11","0","0","0","1","11","1","1","11","1","1","1","11","18","1","1","2","1","1","1","1","0","0","0","0","11","11/04/17 13:47:34","Executes Python code","yes","","lineup_videoFB.osexp","C:/Users/standalone/Desktop/Full Body Video 0411","no","mono","no","24","no","black","no","yes","male","768","No","no","no","no","legacy","no","5","0","C:/Users/standalone/Desktop/Full Body Video 0411/subject-20.csv","[member6]","3","2","4","5","1","7","xpyriment","Jazzy James","3.1.6","0","2","legacy","1024","2","48000","-16","experiment","20","even","legacy","[target1]","absent","present","167870","3385","159014","3385","144972","211119","155400","159014","167798","NA","133411","NA","3311","3377","167868","209221","NA","NA","168940","167923","167899","167923","205640","211119","151962","167868","167870","155400","163359","NA","NA","3313","3312","3313","NA","205640","lineup1","no","6","no","1366"
"","white","no","xpyriment","legacy","legacy","0","no","relative","2","2","1","2","11","11","1","1","1","0","11","0","0","0","1","11","1","1","11","1","1","1","11","18","1","1","2","1","1","1","1","0","0","0","0","11","11/04/17 13:47:34","Executes Python code","yes","","lineup_videoFB.osexp","C:/Users/standalone/Desktop/Full Body Video 0411","no","mono","no","24","no","black","no","yes","male","768","No","No","no","No","legacy","no","5","0","C:/Users/standalone/Desktop/Full Body Video 0411/subject-20.csv","[member6]","3","2","4","5","1","7","xpyriment","Jazzy James","3.1.6","0","2","legacy","1024","2","48000","-16","experiment","20","even","legacy","[target1]","absent","present","167870","3385","214761","3385","144972","211119","214761","159014","228275","NA","133411","NA","3311","3377","167868","209221","NA","NA","168940","167923","167899","167923","205640","228275","211163","167868","167870","155400","223831","NA","NA","3313","3312","3313","NA","205640","lineup1","no","6","no","1366"
"","white","no","xpyriment","legacy","legacy","0","no","relative","2","2","1","2","11","11","1","1","1","0","11","0","0","0","1","11","1","1","11","1","1","1","11","18","1","1","2","1","1","1","1","0","0","0","0","11","11/04/17 13:47:34","Executes Python code","yes","","lineup_videoFB.osexp","C:/Users/standalone/Desktop/Full Body Video 0411","no","mono","no","24","no","black","no","yes","male","768","No","No","no","No","legacy","1pm","5","0","C:/Users/standalone/Desktop/Full Body Video 0411/subject-20.csv","[member6]","3","2","4","5","1","7","xpyriment","Jazzy James","3.1.6","0","2","legacy","1024","2","48000","-16","experiment","20","even","legacy","[target1]","absent","present","167870","3385","214761","3385","144972","211119","214761","159014","228275","231385","133411","231385","3311","3377","167868","209221","NA","NA","168940","167923","167899","167923","205640","232213","211163","167868","167870","155400","223831","NA","NA","3313","3312","3313","228349","205640","lineup1","no","6","no","1366"
