"_prepare","background","bidi","canvas_backend","clock_backend","color_backend","compensation","confidence_immediate","coordinates","count_TA_sequence_setting","count_TP_sequence_setting","count_admin_check","count_check_TP","count_check_confidence_imm","count_check_identification","count_check_made_identification","count_check_multiple_identification","count_check_proceeding_identification","count_check_time_of_exposure","count_confidence_imm","count_end_of_experiment","count_experiment","count_gender_lineup_loop","count_gender_randomization_sequence","count_identification_task","count_instructions_after_multiple","count_instructions_after_proceed_identification","count_instructions_before_view","count_lineup_loop","count_lineup_procedure_loop","count_lineup_procedure_sequence","count_lineup_sequence","count_logger","count_made_identification","count_member_randomization_loop","count_member_randomization_sequence","count_multiple_identification","count_proceed_identification","count_repeat_lineup_sequence_identification","count_repeat_lineup_sequence_multiple","count_target_setting","count_target_setting_loop","count_target_setting_sequence","count_time_of_exposure","count_video","datetime","description","disable_garbage_collection","empty_column","experiment_file","experiment_path","font_bold","font_family","font_italic","font_size","font_underline","foreground","form_clicks","fullscreen","gender","height","identification","identification_made","identification_multiple","identification_proceed","keyboard_backend","lecture_time","live_row","live_row_target_setting_loop","logfile","member","member1","member2","member3","member4","member5","member6","mouse_backend","opensesame_codename","opensesame_version","repeat_cycle","round_decimals","sampler_backend","sound_buf_size","sound_channels","sound_freq","sound_sample_size","start","subject_nr","subject_parity","synth_backend","target","target1","target2","time_TA_sequence_setting","time_TP_sequence_setting","time_admin_check","time_check_TP","time_check_confidence_imm","time_check_identification","time_check_made_identification","time_check_multiple_identification","time_check_proceeding_identification","time_check_time_of_exposure","time_confidence_imm","time_end_of_experiment","time_experiment","time_gender_lineup_loop","time_gender_randomization_sequence","time_identification_task","time_instructions_after_multiple","time_instructions_after_proceed_identification","time_instructions_before_view","time_lineup_loop","time_lineup_procedure_loop","time_lineup_procedure_sequence","time_lineup_sequence","time_logger","time_made_identification","time_member_randomization_loop","time_member_randomization_sequence","time_multiple_identification","time_proceed_identification","time_repeat_lineup_sequence_identification","time_repeat_lineup_sequence_multiple","time_target_setting","time_target_setting_loop","time_target_setting_sequence","time_time_of_exposure","time_video","title","transparent_variables","trial","uniform_coordinates","width"
"","white","no","xpyriment","legacy","legacy","0","NA","relative","NA","NA","NA","NA","NA","NA","NA","NA","NA","0","NA","0","0","0","NA","NA","NA","NA","NA","NA","NA","NA","NA","1","NA","NA","NA","NA","NA","NA","NA","0","0","0","0","NA","11/04/17 14:12:05","Executes Python code","yes","","lineup_videoFB.osexp","C:/Users/standalone/Desktop/Full Body Video 0411","no","mono","no","24","no","black","no","yes","NA","768","NA","NA","NA","NA","legacy","no","0","0","C:/Users/standalone/Desktop/Full Body Video 0411/subject-29.csv","NA","NA","NA","NA","NA","NA","NA","xpyriment","Jazzy James","3.1.6","0","2","legacy","1024","2","48000","-16","experiment","29","odd","legacy","NA","absent","present","NA","NA","NA","NA","NA","NA","NA","NA","NA","NA","NA","NA","3545","NA","NA","NA","NA","NA","NA","NA","NA","NA","NA","3547","NA","NA","NA","NA","NA","NA","NA","3547","3545","3547","NA","NA","lineup1","no","NA","no","1366"
"","white","no","xpyriment","legacy","legacy","0","NA","relative","0","0","NA","0","NA","NA","NA","NA","NA","0","NA","0","0","0","0","NA","NA","NA","NA","NA","0","NA","NA","2","NA","0","0","NA","NA","NA","NA","0","0","0","0","NA","11/04/17 14:12:05","Executes Python code","yes","","lineup_videoFB.osexp","C:/Users/standalone/Desktop/Full Body Video 0411","no","mono","no","24","no","black","no","yes","male","768","NA","NA","NA","NA","legacy","no","0","0","C:/Users/standalone/Desktop/Full Body Video 0411/subject-29.csv","NA","2","3","5","4","7","1","xpyriment","Jazzy James","3.1.6","0","2","legacy","1024","2","48000","-16","experiment","29","odd","legacy","[target1]","absent","present","3615","NA","NA","NA","NA","NA","NA","NA","NA","NA","NA","NA","3545","3609","3613","NA","NA","NA","NA","NA","NA","NA","NA","3615","NA","3613","3615","NA","NA","NA","NA","3547","3545","3547","NA","NA","lineup1","no","NA","no","1366"
"","white","no","xpyriment","legacy","legacy","0","no","relative","0","0","0","0","0","0","0","0","0","0","0","0","0","0","0","0","0","0","0","0","0","0","0","4","0","0","0","0","0","0","0","0","0","0","0","0","11/04/17 14:12:05","Executes Python code","yes","","lineup_videoFB.osexp","C:/Users/standalone/Desktop/Full Body Video 0411","no","mono","no","24","no","black","no","yes","male","768","No","no","no","no","legacy","no","0","0","C:/Users/standalone/Desktop/Full Body Video 0411/subject-29.csv","[member1]","2","3","5","4","7","1","xpyriment","Jazzy James","3.1.6","0","2","legacy","1024","2","48000","-16","experiment","29","odd","legacy","[target1]","absent","present","3615","NA","NA","NA","NA","74835","NA","NA","NA","NA","NA","NA","3545","3609","3613","71019","NA","NA","4876","3687","3662","3686","4876","74835","NA","3613","3615","NA","NA","NA","NA","3547","3545","3547","NA","43738","lineup1","no","1","no","1366"
"","white","no","xpyriment","legacy","legacy","0","no","relative","0","0","0","0","1","1","0","0","0","0","1","0","0","0","0","1","0","0","1","0","0","0","1","5","0","0","0","0","0","0","0","0","0","0","0","1","11/04/17 14:12:05","Executes Python code","yes","","lineup_videoFB.osexp","C:/Users/standalone/Desktop/Full Body Video 0411","no","mono","no","24","no","black","no","yes","male","768","No","no","no","no","legacy","no","1","0","C:/Users/standalone/Desktop/Full Body Video 0411/subject-29.csv","[member2]","2","3","5","4","7","1","xpyriment","Jazzy James","3.1.6","0","2","legacy","1024","2","48000","-16","experiment","29","odd","legacy","[target1]","absent","present","3615","NA","NA","NA","NA","92614","NA","NA","NA","NA","NA","NA","3545","3609","3613","90117","NA","NA","4876","3687","3662","3686","75898","92614","NA","3613","3615","NA","NA","NA","NA","3547","3545","3547","NA","75898","lineup1","no","2","no","1366"
"","white","no","xpyriment","legacy","legacy","0","70","relative","0","0","0","0","2","2","0","0","0","0","2","0","0","0","0","2","0","0","2","0","0","0","2","6","0","0","0","0","0","0","0","0","0","0","0","2","11/04/17 14:12:05","Executes Python code","yes","","lineup_videoFB.osexp","C:/Users/standalone/Desktop/Full Body Video 0411","no","mono","no","24","no","black","no","yes","male","768","Yes","no","no","no","legacy","no","2","0","C:/Users/standalone/Desktop/Full Body Video 0411/subject-29.csv","[member3]","2","3","5","4","7","1","xpyriment","Jazzy James","3.1.6","0","2","legacy","1024","2","48000","-16","experiment","29","odd","legacy","[target1]","absent","present","3615","NA","NA","NA","124523","115861","NA","NA","NA","NA","115861","NA","3545","3609","3613","112602","NA","NA","4876","3687","3662","3686","93652","124523","NA","3613","3615","NA","NA","NA","NA","3547","3545","3547","NA","93653","lineup1","no","3","no","1366"
"","white","no","xpyriment","legacy","legacy","0","no","relative","0","0","0","0","3","3","0","0","0","0","3","0","0","0","0","3","0","0","3","0","0","0","3","7","0","0","0","0","0","0","0","0","0","0","0","3","11/04/17 14:12:05","Executes Python code","yes","","lineup_videoFB.osexp","C:/Users/standalone/Desktop/Full Body Video 0411","no","mono","no","24","no","black","no","yes","male","768","No","no","no","no","legacy","no","3","0","C:/Users/standalone/Desktop/Full Body Video 0411/subject-29.csv","[member4]","2","3","5","4","7","1","xpyriment","Jazzy James","3.1.6","0","2","legacy","1024","2","48000","-16","experiment","29","odd","legacy","[target1]","absent","present","3615","NA","NA","NA","124523","133067","NA","NA","NA","NA","115861","NA","3545","3609","3613","131125","NA","NA","4876","3687","3662","3686","125632","133067","NA","3613","3615","NA","NA","NA","NA","3547","3545","3547","NA","125632","lineup1","no","4","no","1366"
"","white","no","xpyriment","legacy","legacy","0","no","relative","0","0","0","0","4","4","0","0","0","0","4","0","0","0","0","4","0","0","4","0","0","0","4","8","0","0","0","0","0","0","0","0","0","0","0","4","11/04/17 14:12:05","Executes Python code","yes","","lineup_videoFB.osexp","C:/Users/standalone/Desktop/Full Body Video 0411","no","mono","no","24","no","black","no","yes","male","768","No","no","no","no","legacy","no","4","0","C:/Users/standalone/Desktop/Full Body Video 0411/subject-29.csv","[member5]","2","3","5","4","7","1","xpyriment","Jazzy James","3.1.6","0","2","legacy","1024","2","48000","-16","experiment","29","odd","legacy","[target1]","absent","present","3615","NA","NA","NA","124523","151969","NA","NA","NA","NA","115861","NA","3545","3609","3613","148529","NA","NA","4876","3687","3662","3686","134154","151970","NA","3613","3615","NA","NA","NA","NA","3547","3545","3547","NA","134154","lineup1","no","5","no","1366"
"","white","no","xpyriment","legacy","legacy","0","no","relative","0","0","0","0","5","5","0","0","0","0","5","0","0","0","0","5","0","0","5","0","0","0","5","9","0","0","0","0","0","0","0","0","0","0","0","5","11/04/17 14:12:05","Executes Python code","yes","","lineup_videoFB.osexp","C:/Users/standalone/Desktop/Full Body Video 0411","no","mono","no","24","no","black","no","yes","male","768","Not sure","no","no","no","legacy","no","5","0","C:/Users/standalone/Desktop/Full Body Video 0411/subject-29.csv","[member6]","2","3","5","4","7","1","xpyriment","Jazzy James","3.1.6","0","2","legacy","1024","2","48000","-16","experiment","29","odd","legacy","[target1]","absent","present","3615","NA","NA","NA","124523","173070","NA","NA","NA","NA","115861","NA","3545","3609","3613","170741","NA","NA","4876","3687","3662","3686","153056","173070","NA","3613","3615","NA","NA","NA","NA","3547","3545","3547","NA","153056","lineup1","no","6","no","1366"
"","white","no","xpyriment","legacy","legacy","0","no","relative","0","0","0","0","5","5","0","0","0","0","5","0","0","0","0","5","0","0","5","0","0","0","5","9","0","0","0","0","0","0","0","0","0","0","0","5","11/04/17 14:12:05","Executes Python code","yes","","lineup_videoFB.osexp","C:/Users/standalone/Desktop/Full Body Video 0411","no","mono","no","24","no","black","no","yes","male","768","Not sure","Yes","One","No","legacy","no","5","0","C:/Users/standalone/Desktop/Full Body Video 0411/subject-29.csv","[member6]","2","3","5","4","7","1","xpyriment","Jazzy James","3.1.6","0","2","legacy","1024","2","48000","-16","experiment","29","odd","legacy","[target1]","absent","present","3615","NA","180385","NA","124523","173070","176714","180385","189504","NA","115861","NA","3545","3609","3613","170741","NA","NA","4876","3687","3662","3686","153056","189504","173118","3613","3615","176715","184987","NA","NA","3547","3545","3547","NA","153056","lineup1","no","6","no","1366"
"","white","no","xpyriment","legacy","legacy","0","no","relative","2","2","0","2","5","5","0","0","0","0","5","0","0","0","1","5","0","0","5","0","1","0","5","11","0","1","2","0","0","0","0","0","0","0","0","5","11/04/17 14:12:05","Executes Python code","yes","","lineup_videoFB.osexp","C:/Users/standalone/Desktop/Full Body Video 0411","no","mono","no","24","no","black","no","yes","female","768","Not sure","Yes","One","No","legacy","no","0","0","C:/Users/standalone/Desktop/Full Body Video 0411/subject-29.csv","[member6]","3","6","1","2","4","5","xpyriment","Jazzy James","3.1.6","0","2","legacy","1024","2","48000","-16","experiment","29","odd","legacy","[target2]","absent","present","3615","189577","180385","189577","124523","173070","176714","180385","189504","NA","115861","NA","3545","3609","189572","170741","NA","NA","4876","3687","3662","3686","153056","189577","173118","189572","189577","176715","184987","NA","NA","3547","3545","3547","NA","153056","lineup1","no","6","no","1366"
"","white","no","xpyriment","legacy","legacy","0","no","relative","2","2","0","2","5","5","0","0","0","0","5","0","0","0","1","5","0","0","5","0","1","0","5","11","0","1","2","0","0","0","0","0","0","0","0","5","11/04/17 14:12:05","Executes Python code","yes","","lineup_videoFB.osexp","C:/Users/standalone/Desktop/Full Body Video 0411","no","mono","no","24","no","black","no","yes","female","768","Not sure","Yes","One","No","legacy","no","0","0","C:/Users/standalone/Desktop/Full Body Video 0411/subject-29.csv","[member6]","3","6","1","2","4","5","xpyriment","Jazzy James","3.1.6","0","2","legacy","1024","2","48000","-16","experiment","29","odd","legacy","[target2]","absent","present","3615","189577","180385","189577","124523","173070","176714","180385","189504","NA","115861","NA","3545","3609","189572","170741","NA","NA","4876","3687","3662","3686","153056","189616","173118","189572","189577","176715","184987","NA","NA","3547","3545","3547","NA","153056","lineup1","no","6","no","1366"
"","white","no","xpyriment","legacy","legacy","0","no","relative","2","2","1","2","6","6","1","1","1","0","6","0","0","0","1","6","1","1","6","1","1","1","6","13","1","1","2","1","1","1","1","0","0","0","0","6","11/04/17 14:12:05","Executes Python code","yes","","lineup_videoFB.osexp","C:/Users/standalone/Desktop/Full Body Video 0411","no","mono","no","24","no","black","no","yes","female","768","No","no","no","no","legacy","no","0","0","C:/Users/standalone/Desktop/Full Body Video 0411/subject-29.csv","[member1]","3","6","1","2","4","5","xpyriment","Jazzy James","3.1.6","0","2","legacy","1024","2","48000","-16","experiment","29","odd","legacy","[target2]","absent","present","3615","189577","180385","189577","124523","204437","176714","180385","189504","NA","115861","NA","3545","3609","189572","202469","NA","NA","190696","189672","189649","189672","190696","204437","173118","189572","189577","176715","184987","NA","NA","3547","3545","3547","NA","194191","lineup1","no","1","no","1366"
"","white","no","xpyriment","legacy","legacy","0","60","relative","2","2","1","2","7","7","1","1","1","0","7","0","0","0","1","7","1","1","7","1","1","1","7","14","1","1","2","1","1","1","1","0","0","0","0","7","11/04/17 14:12:05","Executes Python code","yes","","lineup_videoFB.osexp","C:/Users/standalone/Desktop/Full Body Video 0411","no","mono","no","24","no","black","no","yes","female","768","Yes","no","no","no","legacy","no","1","0","C:/Users/standalone/Desktop/Full Body Video 0411/subject-29.csv","[member2]","3","6","1","2","4","5","xpyriment","Jazzy James","3.1.6","0","2","legacy","1024","2","48000","-16","experiment","29","odd","legacy","[target2]","absent","present","3615","189577","180385","189577","229145","224797","176714","180385","189504","NA","224797","NA","3545","3609","189572","222116","NA","NA","190696","189672","189649","189672","205501","229145","173118","189572","189577","176715","184987","NA","NA","3547","3545","3547","NA","205501","lineup1","no","2","no","1366"
"","white","no","xpyriment","legacy","legacy","0","no","relative","2","2","1","2","8","8","1","1","1","0","8","0","0","0","1","8","1","1","8","1","1","1","8","15","1","1","2","1","1","1","1","0","0","0","0","8","11/04/17 14:12:05","Executes Python code","yes","","lineup_videoFB.osexp","C:/Users/standalone/Desktop/Full Body Video 0411","no","mono","no","24","no","black","no","yes","female","768","No","no","no","no","legacy","no","2","0","C:/Users/standalone/Desktop/Full Body Video 0411/subject-29.csv","[member3]","3","6","1","2","4","5","xpyriment","Jazzy James","3.1.6","0","2","legacy","1024","2","48000","-16","experiment","29","odd","legacy","[target2]","absent","present","3615","189577","180385","189577","229145","239374","176714","180385","189504","NA","224797","NA","3545","3609","189572","237809","NA","NA","190696","189672","189649","189672","230149","239374","173118","189572","189577","176715","184987","NA","NA","3547","3545","3547","NA","230149","lineup1","no","3","no","1366"
"","white","no","xpyriment","legacy","legacy","0","no","relative","2","2","1","2","9","9","1","1","1","0","9","0","0","0","1","9","1","1","9","1","1","1","9","16","1","1","2","1","1","1","1","0","0","0","0","9","11/04/17 14:12:05","Executes Python code","yes","","lineup_videoFB.osexp","C:/Users/standalone/Desktop/Full Body Video 0411","no","mono","no","24","no","black","no","yes","female","768","No","no","no","no","legacy","no","3","0","C:/Users/standalone/Desktop/Full Body Video 0411/subject-29.csv","[member4]","3","6","1","2","4","5","xpyriment","Jazzy James","3.1.6","0","2","legacy","1024","2","48000","-16","experiment","29","odd","legacy","[target2]","absent","present","3615","189577","180385","189577","229145","253442","176714","180385","189504","NA","224797","NA","3545","3609","189572","251479","NA","NA","190696","189672","189649","189672","240444","253442","173118","189572","189577","176715","184987","NA","NA","3547","3545","3547","NA","240444","lineup1","no","4","no","1366"
"","white","no","xpyriment","legacy","legacy","0","no","relative","2","2","1","2","10","10","1","1","1","0","10","0","0","0","1","10","1","1","10","1","1","1","10","17","1","1","2","1","1","1","1","0","0","0","0","10","11/04/17 14:12:05","Executes Python code","yes","","lineup_videoFB.osexp","C:/Users/standalone/Desktop/Full Body Video 0411","no","mono","no","24","no","black","no","yes","female","768","No","no","no","no","legacy","no","4","0","C:/Users/standalone/Desktop/Full Body Video 0411/subject-29.csv","[member5]","3","6","1","2","4","5","xpyriment","Jazzy James","3.1.6","0","2","legacy","1024","2","48000","-16","experiment","29","odd","legacy","[target2]","absent","present","3615","189577","180385","189577","229145","275285","176714","180385","189504","NA","224797","NA","3545","3609","189572","271469","NA","NA","190696","189672","189649","189672","254512","275285","173118","189572","189577","176715","184987","NA","NA","3547","3545","3547","NA","254512","lineup1","no","5","no","1366"
"","white","no","xpyriment","legacy","legacy","0","no","relative","2","2","1","2","11","11","1","1","1","0","11","0","0","0","1","11","1","1","11","1","1","1","11","18","1","1","2","1","1","1","1","0","0","0","0","11","11/04/17 14:12:05","Executes Python code","yes","","lineup_videoFB.osexp","C:/Users/standalone/Desktop/Full Body Video 0411","no","mono","no","24","no","black","no","yes","female","768","No","no","no","no","legacy","no","5","0","C:/Users/standalone/Desktop/Full Body Video 0411/subject-29.csv","[member6]","3","6","1","2","4","5","xpyriment","Jazzy James","3.1.6","0","2","legacy","1024","2","48000","-16","experiment","29","odd","legacy","[target2]","absent","present","3615","189577","180385","189577","229145","289557","176714","180385","189504","NA","224797","NA","3545","3609","189572","287585","NA","NA","190696","189672","189649","189672","276302","289557","173118","189572","189577","176715","184987","NA","NA","3547","3545","3547","NA","276303","lineup1","no","6","no","1366"
"","white","no","xpyriment","legacy","legacy","0","no","relative","2","2","1","2","11","11","1","1","1","0","11","0","0","0","1","11","1","1","11","1","1","1","11","18","1","1","2","1","1","1","1","0","0","0","0","11","11/04/17 14:12:05","Executes Python code","yes","","lineup_videoFB.osexp","C:/Users/standalone/Desktop/Full Body Video 0411","no","mono","no","24","no","black","no","yes","female","768","No","Yes","One","No","legacy","no","5","0","C:/Users/standalone/Desktop/Full Body Video 0411/subject-29.csv","[member6]","3","6","1","2","4","5","xpyriment","Jazzy James","3.1.6","0","2","legacy","1024","2","48000","-16","experiment","29","odd","legacy","[target2]","absent","present","3615","189577","295536","189577","229145","289557","293780","295536","302704","NA","224797","NA","3545","3609","189572","287585","NA","NA","190696","189672","189649","189672","276302","302704","289610","189572","189577","293780","299388","NA","NA","3547","3545","3547","NA","276303","lineup1","no","6","no","1366"
"","white","no","xpyriment","legacy","legacy","0","no","relative","2","2","1","2","11","11","1","1","1","0","11","0","0","0","1","11","1","1","11","1","1","1","11","18","1","1","2","1","1","1","1","0","0","0","0","11","11/04/17 14:12:05","Executes Python code","yes","","lineup_videoFB.osexp","C:/Users/standalone/Desktop/Full Body Video 0411","no","mono","no","24","no","black","no","yes","female","768","No","Yes","One","No","legacy","1pm","5","0","C:/Users/standalone/Desktop/Full Body Video 0411/subject-29.csv","[member6]","3","6","1","2","4","5","xpyriment","Jazzy James","3.1.6","0","2","legacy","1024","2","48000","-16","experiment","29","odd","legacy","[target2]","absent","present","3615","189577","295536","189577","229145","289557","293780","295536","302704","306089","224797","306090","3545","3609","189572","287585","NA","NA","190696","189672","189649","189672","276302","307359","289610","189572","189577","293780","299388","NA","NA","3547","3545","3547","302767","276303","lineup1","no","6","no","1366"
