"_prepare","background","bidi","canvas_backend","clock_backend","color_backend","compensation","confidence_immediate","coordinates","count_TA_sequence_setting","count_TP_sequence_setting","count_admin_check","count_check_TP","count_check_confidence_imm","count_check_identification","count_check_made_identification","count_check_multiple_identification","count_check_proceeding_identification","count_check_time_of_exposure","count_confidence_imm","count_end_of_experiment","count_experiment","count_gender_lineup_loop","count_gender_randomization_sequence","count_identification_task","count_instructions_after_multiple","count_instructions_after_proceed_identification","count_instructions_before_view","count_lineup_loop","count_lineup_procedure_loop","count_lineup_procedure_sequence","count_lineup_sequence","count_logger","count_made_identification","count_member_randomization_loop","count_member_randomization_sequence","count_multiple_identification","count_proceed_identification","count_repeat_lineup_sequence_identification","count_repeat_lineup_sequence_multiple","count_target_setting","count_target_setting_loop","count_target_setting_sequence","count_time_of_exposure","count_video","datetime","description","disable_garbage_collection","empty_column","experiment_file","experiment_path","font_bold","font_family","font_italic","font_size","font_underline","foreground","form_clicks","fullscreen","gender","height","identification","identification_made","identification_multiple","identification_proceed","keyboard_backend","lecture_time","live_row","live_row_target_setting_loop","logfile","member","member1","member2","member3","member4","member5","member6","mouse_backend","opensesame_codename","opensesame_version","repeat_cycle","round_decimals","sampler_backend","sound_buf_size","sound_channels","sound_freq","sound_sample_size","start","subject_nr","subject_parity","synth_backend","target","target1","target2","time_TA_sequence_setting","time_TP_sequence_setting","time_admin_check","time_check_TP","time_check_confidence_imm","time_check_identification","time_check_made_identification","time_check_multiple_identification","time_check_proceeding_identification","time_check_time_of_exposure","time_confidence_imm","time_end_of_experiment","time_experiment","time_gender_lineup_loop","time_gender_randomization_sequence","time_identification_task","time_instructions_after_multiple","time_instructions_after_proceed_identification","time_instructions_before_view","time_lineup_loop","time_lineup_procedure_loop","time_lineup_procedure_sequence","time_lineup_sequence","time_logger","time_made_identification","time_member_randomization_loop","time_member_randomization_sequence","time_multiple_identification","time_proceed_identification","time_repeat_lineup_sequence_identification","time_repeat_lineup_sequence_multiple","time_target_setting","time_target_setting_loop","time_target_setting_sequence","time_time_of_exposure","time_video","title","transparent_variables","trial","uniform_coordinates","width"
"","white","no","xpyriment","legacy","legacy","0","NA","relative","NA","NA","NA","NA","NA","NA","NA","NA","NA","0","NA","0","0","0","NA","NA","NA","NA","NA","NA","NA","NA","NA","1","NA","NA","NA","NA","NA","NA","NA","0","0","0","0","NA","12/02/17 14:18:03","Executes Python code","yes","","lineup_videoFB.osexp","C:/Users/standalone/Desktop/Full Body Video 0411","no","mono","no","24","no","black","no","yes","NA","768","NA","NA","NA","NA","legacy","no","0","0","C:/Users/standalone/Desktop/Full Body Video 0411/subject-47.csv","NA","NA","NA","NA","NA","NA","NA","xpyriment","Jazzy James","3.1.6","0","2","legacy","1024","2","48000","-16","experiment","47","odd","legacy","NA","absent","present","NA","NA","NA","NA","NA","NA","NA","NA","NA","NA","NA","NA","2654","NA","NA","NA","NA","NA","NA","NA","NA","NA","NA","2656","NA","NA","NA","NA","NA","NA","NA","2656","2654","2656","NA","NA","lineup1","no","NA","no","1366"
"","white","no","xpyriment","legacy","legacy","0","NA","relative","0","0","NA","0","NA","NA","NA","NA","NA","0","NA","0","0","0","0","NA","NA","NA","NA","NA","0","NA","NA","2","NA","0","0","NA","NA","NA","NA","0","0","0","0","NA","12/02/17 14:18:03","Executes Python code","yes","","lineup_videoFB.osexp","C:/Users/standalone/Desktop/Full Body Video 0411","no","mono","no","24","no","black","no","yes","male","768","NA","NA","NA","NA","legacy","no","0","0","C:/Users/standalone/Desktop/Full Body Video 0411/subject-47.csv","NA","3","4","2","7","1","5","xpyriment","Jazzy James","3.1.6","0","2","legacy","1024","2","48000","-16","experiment","47","odd","legacy","[target1]","absent","present","2736","NA","NA","NA","NA","NA","NA","NA","NA","NA","NA","NA","2654","2731","2734","NA","NA","NA","NA","NA","NA","NA","NA","2736","NA","2734","2735","NA","NA","NA","NA","2656","2654","2656","NA","NA","lineup1","no","NA","no","1366"
"","white","no","xpyriment","legacy","legacy","0","no","relative","0","0","0","0","0","0","0","0","0","0","0","0","0","0","0","0","0","0","0","0","0","0","0","4","0","0","0","0","0","0","0","0","0","0","0","0","12/02/17 14:18:03","Executes Python code","yes","","lineup_videoFB.osexp","C:/Users/standalone/Desktop/Full Body Video 0411","no","mono","no","24","no","black","no","yes","male","768","No","no","no","no","legacy","no","0","0","C:/Users/standalone/Desktop/Full Body Video 0411/subject-47.csv","[member1]","3","4","2","7","1","5","xpyriment","Jazzy James","3.1.6","0","2","legacy","1024","2","48000","-16","experiment","47","odd","legacy","[target1]","absent","present","2736","NA","NA","NA","NA","72706","NA","NA","NA","NA","NA","NA","2654","2731","2734","69557","NA","NA","3937","2795","2772","2795","3937","72706","NA","2734","2735","NA","NA","NA","NA","2656","2654","2656","NA","44314","lineup1","no","1","no","1366"
"","white","no","xpyriment","legacy","legacy","0","no","relative","0","0","0","0","1","1","0","0","0","0","1","0","0","0","0","1","0","0","1","0","0","0","1","5","0","0","0","0","0","0","0","0","0","0","0","1","12/02/17 14:18:03","Executes Python code","yes","","lineup_videoFB.osexp","C:/Users/standalone/Desktop/Full Body Video 0411","no","mono","no","24","no","black","no","yes","male","768","No","no","no","no","legacy","no","1","0","C:/Users/standalone/Desktop/Full Body Video 0411/subject-47.csv","[member2]","3","4","2","7","1","5","xpyriment","Jazzy James","3.1.6","0","2","legacy","1024","2","48000","-16","experiment","47","odd","legacy","[target1]","absent","present","2736","NA","NA","NA","NA","77643","NA","NA","NA","NA","NA","NA","2654","2731","2734","75417","NA","NA","3937","2795","2772","2795","73794","77643","NA","2734","2735","NA","NA","NA","NA","2656","2654","2656","NA","73794","lineup1","no","2","no","1366"
"","white","no","xpyriment","legacy","legacy","0","no","relative","0","0","0","0","2","2","0","0","0","0","2","0","0","0","0","2","0","0","2","0","0","0","2","6","0","0","0","0","0","0","0","0","0","0","0","2","12/02/17 14:18:03","Executes Python code","yes","","lineup_videoFB.osexp","C:/Users/standalone/Desktop/Full Body Video 0411","no","mono","no","24","no","black","no","yes","male","768","No","no","no","no","legacy","no","2","0","C:/Users/standalone/Desktop/Full Body Video 0411/subject-47.csv","[member3]","3","4","2","7","1","5","xpyriment","Jazzy James","3.1.6","0","2","legacy","1024","2","48000","-16","experiment","47","odd","legacy","[target1]","absent","present","2736","NA","NA","NA","NA","86475","NA","NA","NA","NA","NA","NA","2654","2731","2734","84362","NA","NA","3937","2795","2772","2795","78697","86475","NA","2734","2735","NA","NA","NA","NA","2656","2654","2656","NA","78698","lineup1","no","3","no","1366"
"","white","no","xpyriment","legacy","legacy","0","no","relative","0","0","0","0","3","3","0","0","0","0","3","0","0","0","0","3","0","0","3","0","0","0","3","7","0","0","0","0","0","0","0","0","0","0","0","3","12/02/17 14:18:03","Executes Python code","yes","","lineup_videoFB.osexp","C:/Users/standalone/Desktop/Full Body Video 0411","no","mono","no","24","no","black","no","yes","male","768","No","no","no","no","legacy","no","3","0","C:/Users/standalone/Desktop/Full Body Video 0411/subject-47.csv","[member4]","3","4","2","7","1","5","xpyriment","Jazzy James","3.1.6","0","2","legacy","1024","2","48000","-16","experiment","47","odd","legacy","[target1]","absent","present","2736","NA","NA","NA","NA","91286","NA","NA","NA","NA","NA","NA","2654","2731","2734","89413","NA","NA","3937","2795","2772","2795","87578","91286","NA","2734","2735","NA","NA","NA","NA","2656","2654","2656","NA","87579","lineup1","no","4","no","1366"
"","white","no","xpyriment","legacy","legacy","0","no","relative","0","0","0","0","4","4","0","0","0","0","4","0","0","0","0","4","0","0","4","0","0","0","4","8","0","0","0","0","0","0","0","0","0","0","0","4","12/02/17 14:18:03","Executes Python code","yes","","lineup_videoFB.osexp","C:/Users/standalone/Desktop/Full Body Video 0411","no","mono","no","24","no","black","no","yes","male","768","No","no","no","no","legacy","no","4","0","C:/Users/standalone/Desktop/Full Body Video 0411/subject-47.csv","[member5]","3","4","2","7","1","5","xpyriment","Jazzy James","3.1.6","0","2","legacy","1024","2","48000","-16","experiment","47","odd","legacy","[target1]","absent","present","2736","NA","NA","NA","NA","97233","NA","NA","NA","NA","NA","NA","2654","2731","2734","95324","NA","NA","3937","2795","2772","2795","92370","97233","NA","2734","2735","NA","NA","NA","NA","2656","2654","2656","NA","92370","lineup1","no","5","no","1366"
"","white","no","xpyriment","legacy","legacy","0","60","relative","0","0","0","0","5","5","0","0","0","0","5","0","0","0","0","5","0","0","5","0","0","0","5","9","0","0","0","0","0","0","0","0","0","0","0","5","12/02/17 14:18:03","Executes Python code","yes","","lineup_videoFB.osexp","C:/Users/standalone/Desktop/Full Body Video 0411","no","mono","no","24","no","black","no","yes","male","768","Yes","no","no","no","legacy","no","5","0","C:/Users/standalone/Desktop/Full Body Video 0411/subject-47.csv","[member6]","3","4","2","7","1","5","xpyriment","Jazzy James","3.1.6","0","2","legacy","1024","2","48000","-16","experiment","47","odd","legacy","[target1]","absent","present","2736","NA","NA","NA","114147","109569","NA","NA","NA","NA","109569","NA","2654","2731","2734","107271","NA","NA","3937","2795","2772","2795","98272","114147","NA","2734","2735","NA","NA","NA","NA","2656","2654","2656","NA","98273","lineup1","no","6","no","1366"
"","white","no","xpyriment","legacy","legacy","0","60","relative","0","0","0","0","5","5","0","0","0","0","5","0","0","0","0","5","0","0","5","0","0","0","5","9","0","0","0","0","0","0","0","0","0","0","0","5","12/02/17 14:18:03","Executes Python code","yes","","lineup_videoFB.osexp","C:/Users/standalone/Desktop/Full Body Video 0411","no","mono","no","24","no","black","no","yes","male","768","Yes","Yes","One","No","legacy","no","5","0","C:/Users/standalone/Desktop/Full Body Video 0411/subject-47.csv","[member6]","3","4","2","7","1","5","xpyriment","Jazzy James","3.1.6","0","2","legacy","1024","2","48000","-16","experiment","47","odd","legacy","[target1]","absent","present","2736","NA","120921","NA","114147","109569","117337","120921","137257","NA","109569","NA","2654","2731","2734","107271","NA","NA","3937","2795","2772","2795","98272","137257","114216","2734","2735","117337","125191","NA","NA","2656","2654","2656","NA","98273","lineup1","no","6","no","1366"
"","white","no","xpyriment","legacy","legacy","0","60","relative","2","2","0","2","5","5","0","0","0","0","5","0","0","0","1","5","0","0","5","0","1","0","5","11","0","1","2","0","0","0","0","0","0","0","0","5","12/02/17 14:18:03","Executes Python code","yes","","lineup_videoFB.osexp","C:/Users/standalone/Desktop/Full Body Video 0411","no","mono","no","24","no","black","no","yes","female","768","Yes","Yes","One","No","legacy","no","0","0","C:/Users/standalone/Desktop/Full Body Video 0411/subject-47.csv","[member6]","5","1","6","3","4","2","xpyriment","Jazzy James","3.1.6","0","2","legacy","1024","2","48000","-16","experiment","47","odd","legacy","[target2]","absent","present","2736","137334","120921","137334","114147","109569","117337","120921","137257","NA","109569","NA","2654","2731","137330","107271","NA","NA","3937","2795","2772","2795","98272","137334","114216","137330","137334","117337","125191","NA","NA","2656","2654","2656","NA","98273","lineup1","no","6","no","1366"
"","white","no","xpyriment","legacy","legacy","0","60","relative","2","2","0","2","5","5","0","0","0","0","5","0","0","0","1","5","0","0","5","0","1","0","5","11","0","1","2","0","0","0","0","0","0","0","0","5","12/02/17 14:18:03","Executes Python code","yes","","lineup_videoFB.osexp","C:/Users/standalone/Desktop/Full Body Video 0411","no","mono","no","24","no","black","no","yes","female","768","Yes","Yes","One","No","legacy","no","0","0","C:/Users/standalone/Desktop/Full Body Video 0411/subject-47.csv","[member6]","5","1","6","3","4","2","xpyriment","Jazzy James","3.1.6","0","2","legacy","1024","2","48000","-16","experiment","47","odd","legacy","[target2]","absent","present","2736","137334","120921","137334","114147","109569","117337","120921","137257","NA","109569","NA","2654","2731","137330","107271","NA","NA","3937","2795","2772","2795","98272","137371","114216","137330","137334","117337","125191","NA","NA","2656","2654","2656","NA","98273","lineup1","no","6","no","1366"
"","white","no","xpyriment","legacy","legacy","0","no","relative","2","2","1","2","6","6","1","1","1","0","6","0","0","0","1","6","1","1","6","1","1","1","6","13","1","1","2","1","1","1","1","0","0","0","0","6","12/02/17 14:18:03","Executes Python code","yes","","lineup_videoFB.osexp","C:/Users/standalone/Desktop/Full Body Video 0411","no","mono","no","24","no","black","no","yes","female","768","No","no","no","no","legacy","no","0","0","C:/Users/standalone/Desktop/Full Body Video 0411/subject-47.csv","[member1]","5","1","6","3","4","2","xpyriment","Jazzy James","3.1.6","0","2","legacy","1024","2","48000","-16","experiment","47","odd","legacy","[target2]","absent","present","2736","137334","120921","137334","114147","148915","117337","120921","137257","NA","109569","NA","2654","2731","137330","146500","NA","NA","138420","137426","137403","137426","138420","148915","114216","137330","137334","117337","125191","NA","NA","2656","2654","2656","NA","145081","lineup1","no","1","no","1366"
"","white","no","xpyriment","legacy","legacy","0","no","relative","2","2","1","2","7","7","1","1","1","0","7","0","0","0","1","7","1","1","7","1","1","1","7","14","1","1","2","1","1","1","1","0","0","0","0","7","12/02/17 14:18:03","Executes Python code","yes","","lineup_videoFB.osexp","C:/Users/standalone/Desktop/Full Body Video 0411","no","mono","no","24","no","black","no","yes","female","768","Not sure","no","no","no","legacy","no","1","0","C:/Users/standalone/Desktop/Full Body Video 0411/subject-47.csv","[member2]","5","1","6","3","4","2","xpyriment","Jazzy James","3.1.6","0","2","legacy","1024","2","48000","-16","experiment","47","odd","legacy","[target2]","absent","present","2736","137334","120921","137334","114147","170832","117337","120921","137257","NA","109569","NA","2654","2731","137330","167349","NA","NA","138420","137426","137403","137426","149912","170833","114216","137330","137334","117337","125191","NA","NA","2656","2654","2656","NA","149912","lineup1","no","2","no","1366"
"","white","no","xpyriment","legacy","legacy","0","50","relative","2","2","1","2","8","8","1","1","1","0","8","0","0","0","1","8","1","1","8","1","1","1","8","15","1","1","2","1","1","1","1","0","0","0","0","8","12/02/17 14:18:03","Executes Python code","yes","","lineup_videoFB.osexp","C:/Users/standalone/Desktop/Full Body Video 0411","no","mono","no","24","no","black","no","yes","female","768","Yes","no","no","no","legacy","no","2","0","C:/Users/standalone/Desktop/Full Body Video 0411/subject-47.csv","[member3]","5","1","6","3","4","2","xpyriment","Jazzy James","3.1.6","0","2","legacy","1024","2","48000","-16","experiment","47","odd","legacy","[target2]","absent","present","2736","137334","120921","137334","182194","177997","117337","120921","137257","NA","177997","NA","2654","2731","137330","176046","NA","NA","138420","137426","137403","137426","171886","182194","114216","137330","137334","117337","125191","NA","NA","2656","2654","2656","NA","171886","lineup1","no","3","no","1366"
"","white","no","xpyriment","legacy","legacy","0","no","relative","2","2","1","2","9","9","1","1","1","0","9","0","0","0","1","9","1","1","9","1","1","1","9","16","1","1","2","1","1","1","1","0","0","0","0","9","12/02/17 14:18:03","Executes Python code","yes","","lineup_videoFB.osexp","C:/Users/standalone/Desktop/Full Body Video 0411","no","mono","no","24","no","black","no","yes","female","768","No","no","no","no","legacy","no","3","0","C:/Users/standalone/Desktop/Full Body Video 0411/subject-47.csv","[member4]","5","1","6","3","4","2","xpyriment","Jazzy James","3.1.6","0","2","legacy","1024","2","48000","-16","experiment","47","odd","legacy","[target2]","absent","present","2736","137334","120921","137334","182194","189947","117337","120921","137257","NA","177997","NA","2654","2731","137330","187318","NA","NA","138420","137426","137403","137426","183270","189948","114216","137330","137334","117337","125191","NA","NA","2656","2654","2656","NA","183270","lineup1","no","4","no","1366"
"","white","no","xpyriment","legacy","legacy","0","no","relative","2","2","1","2","10","10","1","1","1","0","10","0","0","0","1","10","1","1","10","1","1","1","10","17","1","1","2","1","1","1","1","0","0","0","0","10","12/02/17 14:18:03","Executes Python code","yes","","lineup_videoFB.osexp","C:/Users/standalone/Desktop/Full Body Video 0411","no","mono","no","24","no","black","no","yes","female","768","No","no","no","no","legacy","no","4","0","C:/Users/standalone/Desktop/Full Body Video 0411/subject-47.csv","[member5]","5","1","6","3","4","2","xpyriment","Jazzy James","3.1.6","0","2","legacy","1024","2","48000","-16","experiment","47","odd","legacy","[target2]","absent","present","2736","137334","120921","137334","182194","194142","117337","120921","137257","NA","177997","NA","2654","2731","137330","192085","NA","NA","138420","137426","137403","137426","191019","194142","114216","137330","137334","117337","125191","NA","NA","2656","2654","2656","NA","191019","lineup1","no","5","no","1366"
"","white","no","xpyriment","legacy","legacy","0","no","relative","2","2","1","2","11","11","1","1","1","0","11","0","0","0","1","11","1","1","11","1","1","1","11","18","1","1","2","1","1","1","1","0","0","0","0","11","12/02/17 14:18:03","Executes Python code","yes","","lineup_videoFB.osexp","C:/Users/standalone/Desktop/Full Body Video 0411","no","mono","no","24","no","black","no","yes","female","768","No","no","no","no","legacy","no","5","0","C:/Users/standalone/Desktop/Full Body Video 0411/subject-47.csv","[member6]","5","1","6","3","4","2","xpyriment","Jazzy James","3.1.6","0","2","legacy","1024","2","48000","-16","experiment","47","odd","legacy","[target2]","absent","present","2736","137334","120921","137334","182194","197967","117337","120921","137257","NA","177997","NA","2654","2731","137330","196261","NA","NA","138420","137426","137403","137426","195205","197967","114216","137330","137334","117337","125191","NA","NA","2656","2654","2656","NA","195205","lineup1","no","6","no","1366"
"","white","no","xpyriment","legacy","legacy","0","no","relative","2","2","1","2","11","11","1","1","1","0","11","0","0","0","1","11","1","1","11","1","1","1","11","18","1","1","2","1","1","1","1","0","0","0","0","11","12/02/17 14:18:03","Executes Python code","yes","","lineup_videoFB.osexp","C:/Users/standalone/Desktop/Full Body Video 0411","no","mono","no","24","no","black","no","yes","female","768","No","Yes","One","No","legacy","no","5","0","C:/Users/standalone/Desktop/Full Body Video 0411/subject-47.csv","[member6]","5","1","6","3","4","2","xpyriment","Jazzy James","3.1.6","0","2","legacy","1024","2","48000","-16","experiment","47","odd","legacy","[target2]","absent","present","2736","137334","207344","137334","182194","197967","203605","207343","221936","NA","177997","NA","2654","2731","137330","196261","NA","NA","138420","137426","137403","137426","195205","221936","198019","137330","137334","203605","210722","NA","NA","2656","2654","2656","NA","195205","lineup1","no","6","no","1366"
"","white","no","xpyriment","legacy","legacy","0","no","relative","2","2","1","2","11","11","1","1","1","0","11","0","0","0","1","11","1","1","11","1","1","1","11","18","1","1","2","1","1","1","1","0","0","0","0","11","12/02/17 14:18:03","Executes Python code","yes","","lineup_videoFB.osexp","C:/Users/standalone/Desktop/Full Body Video 0411","no","mono","no","24","no","black","no","yes","female","768","No","Yes","One","No","legacy","1pm","5","0","C:/Users/standalone/Desktop/Full Body Video 0411/subject-47.csv","[member6]","5","1","6","3","4","2","xpyriment","Jazzy James","3.1.6","0","2","legacy","1024","2","48000","-16","experiment","47","odd","legacy","[target2]","absent","present","2736","137334","207344","137334","182194","197967","203605","207343","221936","227131","177997","227131","2654","2731","137330","196261","NA","NA","138420","137426","137403","137426","195205","228629","198019","137330","137334","203605","210722","NA","NA","2656","2654","2656","221993","195205","lineup1","no","6","no","1366"
