"_prepare","background","bidi","canvas_backend","clock_backend","color_backend","compensation","confidence_immediate","coordinates","count_TA_sequence_setting","count_TP_sequence_setting","count_admin_check","count_check_TP","count_check_confidence_imm","count_check_identification","count_check_made_identification","count_check_multiple_identification","count_check_proceeding_identification","count_check_time_of_exposure","count_confidence_imm","count_end_of_experiment","count_experiment","count_gender_lineup_loop","count_gender_randomization_sequence","count_identification_task","count_instructions_after_multiple","count_instructions_after_proceed_identification","count_instructions_before_view","count_lineup_loop","count_lineup_procedure_loop","count_lineup_procedure_sequence","count_lineup_sequence","count_logger","count_made_identification","count_member_randomization_loop","count_member_randomization_sequence","count_multiple_identification","count_proceed_identification","count_repeat_lineup_sequence_identification","count_repeat_lineup_sequence_multiple","count_target_setting","count_target_setting_loop","count_target_setting_sequence","count_time_of_exposure","count_video","datetime","description","disable_garbage_collection","empty_column","experiment_file","experiment_path","font_bold","font_family","font_italic","font_size","font_underline","foreground","form_clicks","fullscreen","gender","height","identification","identification_made","identification_multiple","identification_proceed","keyboard_backend","lecture_time","live_row","live_row_target_setting_loop","logfile","member","member1","member2","member3","member4","member5","member6","mouse_backend","opensesame_codename","opensesame_version","repeat_cycle","round_decimals","sampler_backend","sound_buf_size","sound_channels","sound_freq","sound_sample_size","start","subject_nr","subject_parity","synth_backend","target","target1","target2","time_TA_sequence_setting","time_TP_sequence_setting","time_admin_check","time_check_TP","time_check_confidence_imm","time_check_identification","time_check_made_identification","time_check_multiple_identification","time_check_proceeding_identification","time_check_time_of_exposure","time_confidence_imm","time_end_of_experiment","time_experiment","time_gender_lineup_loop","time_gender_randomization_sequence","time_identification_task","time_instructions_after_multiple","time_instructions_after_proceed_identification","time_instructions_before_view","time_lineup_loop","time_lineup_procedure_loop","time_lineup_procedure_sequence","time_lineup_sequence","time_logger","time_made_identification","time_member_randomization_loop","time_member_randomization_sequence","time_multiple_identification","time_proceed_identification","time_repeat_lineup_sequence_identification","time_repeat_lineup_sequence_multiple","time_target_setting","time_target_setting_loop","time_target_setting_sequence","time_time_of_exposure","time_video","title","transparent_variables","trial","uniform_coordinates","width"
"","white","no","xpyriment","legacy","legacy","0","NA","relative","NA","NA","NA","NA","NA","NA","NA","NA","NA","0","NA","0","0","0","NA","NA","NA","NA","NA","NA","NA","NA","NA","1","NA","NA","NA","NA","NA","NA","NA","0","0","0","0","NA","12/02/17 14:23:37","Executes Python code","yes","","lineup_videoFB.osexp","C:/Users/standalone/Desktop/Full Body Video 0411","no","mono","no","24","no","black","no","yes","NA","768","NA","NA","NA","NA","legacy","no","0","0","C:/Users/standalone/Desktop/Full Body Video 0411/subject-50.csv","NA","NA","NA","NA","NA","NA","NA","xpyriment","Jazzy James","3.1.6","0","2","legacy","1024","2","48000","-16","experiment","50","even","legacy","NA","present","absent","NA","NA","NA","NA","NA","NA","NA","NA","NA","NA","NA","NA","2721","NA","NA","NA","NA","NA","NA","NA","NA","NA","NA","2723","NA","NA","NA","NA","NA","NA","NA","2723","2721","2723","NA","NA","lineup1","no","NA","no","1366"
"","white","no","xpyriment","legacy","legacy","0","NA","relative","0","0","NA","0","NA","NA","NA","NA","NA","0","NA","0","0","0","0","NA","NA","NA","NA","NA","0","NA","NA","2","NA","0","0","NA","NA","NA","NA","0","0","0","0","NA","12/02/17 14:23:37","Executes Python code","yes","","lineup_videoFB.osexp","C:/Users/standalone/Desktop/Full Body Video 0411","no","mono","no","24","no","black","no","yes","female","768","NA","NA","NA","NA","legacy","no","0","0","C:/Users/standalone/Desktop/Full Body Video 0411/subject-50.csv","NA","3","2","5","1","4","7","xpyriment","Jazzy James","3.1.6","0","2","legacy","1024","2","48000","-16","experiment","50","even","legacy","[target2]","present","absent","2785","NA","NA","NA","NA","NA","NA","NA","NA","NA","NA","NA","2721","2779","2783","NA","NA","NA","NA","NA","NA","NA","NA","2785","NA","2783","2785","NA","NA","NA","NA","2723","2721","2723","NA","NA","lineup1","no","NA","no","1366"
"","white","no","xpyriment","legacy","legacy","0","no","relative","0","0","0","0","0","0","0","0","0","0","0","0","0","0","0","0","0","0","0","0","0","0","0","4","0","0","0","0","0","0","0","0","0","0","0","0","12/02/17 14:23:37","Executes Python code","yes","","lineup_videoFB.osexp","C:/Users/standalone/Desktop/Full Body Video 0411","no","mono","no","24","no","black","no","yes","female","768","No","no","no","no","legacy","no","0","0","C:/Users/standalone/Desktop/Full Body Video 0411/subject-50.csv","[member1]","3","2","5","1","4","7","xpyriment","Jazzy James","3.1.6","0","2","legacy","1024","2","48000","-16","experiment","50","even","legacy","[target2]","present","absent","2785","NA","NA","NA","NA","54406","NA","NA","NA","NA","NA","NA","2721","2779","2783","49221","NA","NA","4001","2853","2827","2853","4001","54406","NA","2783","2785","NA","NA","NA","NA","2723","2721","2723","NA","24760","lineup1","no","1","no","1366"
"","white","no","xpyriment","legacy","legacy","0","no","relative","0","0","0","0","1","1","0","0","0","0","1","0","0","0","0","1","0","0","1","0","0","0","1","5","0","0","0","0","0","0","0","0","0","0","0","1","12/02/17 14:23:37","Executes Python code","yes","","lineup_videoFB.osexp","C:/Users/standalone/Desktop/Full Body Video 0411","no","mono","no","24","no","black","no","yes","female","768","No","no","no","no","legacy","no","1","0","C:/Users/standalone/Desktop/Full Body Video 0411/subject-50.csv","[member2]","3","2","5","1","4","7","xpyriment","Jazzy James","3.1.6","0","2","legacy","1024","2","48000","-16","experiment","50","even","legacy","[target2]","present","absent","2785","NA","NA","NA","NA","80304","NA","NA","NA","NA","NA","NA","2721","2779","2783","77541","NA","NA","4001","2853","2827","2853","55481","80305","NA","2783","2785","NA","NA","NA","NA","2723","2721","2723","NA","55481","lineup1","no","2","no","1366"
"","white","no","xpyriment","legacy","legacy","0","no","relative","0","0","0","0","2","2","0","0","0","0","2","0","0","0","0","2","0","0","2","0","0","0","2","6","0","0","0","0","0","0","0","0","0","0","0","2","12/02/17 14:23:37","Executes Python code","yes","","lineup_videoFB.osexp","C:/Users/standalone/Desktop/Full Body Video 0411","no","mono","no","24","no","black","no","yes","female","768","No","no","no","no","legacy","no","2","0","C:/Users/standalone/Desktop/Full Body Video 0411/subject-50.csv","[member3]","3","2","5","1","4","7","xpyriment","Jazzy James","3.1.6","0","2","legacy","1024","2","48000","-16","experiment","50","even","legacy","[target2]","present","absent","2785","NA","NA","NA","NA","102430","NA","NA","NA","NA","NA","NA","2721","2779","2783","99620","NA","NA","4001","2853","2827","2853","81332","102430","NA","2783","2785","NA","NA","NA","NA","2723","2721","2723","NA","81332","lineup1","no","3","no","1366"
"","white","no","xpyriment","legacy","legacy","0","no","relative","0","0","0","0","3","3","0","0","0","0","3","0","0","0","0","3","0","0","3","0","0","0","3","7","0","0","0","0","0","0","0","0","0","0","0","3","12/02/17 14:23:37","Executes Python code","yes","","lineup_videoFB.osexp","C:/Users/standalone/Desktop/Full Body Video 0411","no","mono","no","24","no","black","no","yes","female","768","No","no","no","no","legacy","no","3","0","C:/Users/standalone/Desktop/Full Body Video 0411/subject-50.csv","[member4]","3","2","5","1","4","7","xpyriment","Jazzy James","3.1.6","0","2","legacy","1024","2","48000","-16","experiment","50","even","legacy","[target2]","present","absent","2785","NA","NA","NA","NA","124373","NA","NA","NA","NA","NA","NA","2721","2779","2783","122082","NA","NA","4001","2853","2827","2853","103442","124373","NA","2783","2785","NA","NA","NA","NA","2723","2721","2723","NA","103442","lineup1","no","4","no","1366"
"","white","no","xpyriment","legacy","legacy","0","no","relative","0","0","0","0","4","4","0","0","0","0","4","0","0","0","0","4","0","0","4","0","0","0","4","8","0","0","0","0","0","0","0","0","0","0","0","4","12/02/17 14:23:37","Executes Python code","yes","","lineup_videoFB.osexp","C:/Users/standalone/Desktop/Full Body Video 0411","no","mono","no","24","no","black","no","yes","female","768","No","no","no","no","legacy","no","4","0","C:/Users/standalone/Desktop/Full Body Video 0411/subject-50.csv","[member5]","3","2","5","1","4","7","xpyriment","Jazzy James","3.1.6","0","2","legacy","1024","2","48000","-16","experiment","50","even","legacy","[target2]","present","absent","2785","NA","NA","NA","NA","137785","NA","NA","NA","NA","NA","NA","2721","2779","2783","134821","NA","NA","4001","2853","2827","2853","125437","137786","NA","2783","2785","NA","NA","NA","NA","2723","2721","2723","NA","125437","lineup1","no","5","no","1366"
"","white","no","xpyriment","legacy","legacy","0","no","relative","0","0","0","0","5","5","0","0","0","0","5","0","0","0","0","5","0","0","5","0","0","0","5","9","0","0","0","0","0","0","0","0","0","0","0","5","12/02/17 14:23:37","Executes Python code","yes","","lineup_videoFB.osexp","C:/Users/standalone/Desktop/Full Body Video 0411","no","mono","no","24","no","black","no","yes","female","768","Not sure","no","no","no","legacy","no","5","0","C:/Users/standalone/Desktop/Full Body Video 0411/subject-50.csv","[member6]","3","2","5","1","4","7","xpyriment","Jazzy James","3.1.6","0","2","legacy","1024","2","48000","-16","experiment","50","even","legacy","[target2]","present","absent","2785","NA","NA","NA","NA","163803","NA","NA","NA","NA","NA","NA","2721","2779","2783","160958","NA","NA","4001","2853","2827","2853","138798","163804","NA","2783","2785","NA","NA","NA","NA","2723","2721","2723","NA","138798","lineup1","no","6","no","1366"
"","white","no","xpyriment","legacy","legacy","0","no","relative","0","0","0","0","5","5","0","0","0","0","5","0","0","0","0","5","0","0","5","0","0","0","5","9","0","0","0","0","0","0","0","0","0","0","0","5","12/02/17 14:23:37","Executes Python code","yes","","lineup_videoFB.osexp","C:/Users/standalone/Desktop/Full Body Video 0411","no","mono","no","24","no","black","no","yes","female","768","Not sure","No","no","No","legacy","no","5","0","C:/Users/standalone/Desktop/Full Body Video 0411/subject-50.csv","[member6]","3","2","5","1","4","7","xpyriment","Jazzy James","3.1.6","0","2","legacy","1024","2","48000","-16","experiment","50","even","legacy","[target2]","present","absent","2785","NA","169554","NA","NA","163803","169554","NA","186735","NA","NA","NA","2721","2779","2783","160958","NA","NA","4001","2853","2827","2853","138798","186735","163836","2783","2785","NA","172724","NA","NA","2723","2721","2723","NA","138798","lineup1","no","6","no","1366"
"","white","no","xpyriment","legacy","legacy","0","no","relative","2","2","0","2","5","5","0","0","0","0","5","0","0","0","1","5","0","0","5","0","1","0","5","11","0","1","2","0","0","0","0","0","0","0","0","5","12/02/17 14:23:37","Executes Python code","yes","","lineup_videoFB.osexp","C:/Users/standalone/Desktop/Full Body Video 0411","no","mono","no","24","no","black","no","yes","male","768","Not sure","No","no","No","legacy","no","0","0","C:/Users/standalone/Desktop/Full Body Video 0411/subject-50.csv","[member6]","5","4","6","1","3","2","xpyriment","Jazzy James","3.1.6","0","2","legacy","1024","2","48000","-16","experiment","50","even","legacy","[target1]","present","absent","2785","186821","169554","186821","NA","163803","169554","NA","186735","NA","NA","NA","2721","2779","186817","160958","NA","NA","4001","2853","2827","2853","138798","186822","163836","186817","186821","NA","172724","NA","NA","2723","2721","2723","NA","138798","lineup1","no","6","no","1366"
"","white","no","xpyriment","legacy","legacy","0","no","relative","2","2","0","2","5","5","0","0","0","0","5","0","0","0","1","5","0","0","5","0","1","0","5","11","0","1","2","0","0","0","0","0","0","0","0","5","12/02/17 14:23:37","Executes Python code","yes","","lineup_videoFB.osexp","C:/Users/standalone/Desktop/Full Body Video 0411","no","mono","no","24","no","black","no","yes","male","768","Not sure","No","no","No","legacy","no","0","0","C:/Users/standalone/Desktop/Full Body Video 0411/subject-50.csv","[member6]","5","4","6","1","3","2","xpyriment","Jazzy James","3.1.6","0","2","legacy","1024","2","48000","-16","experiment","50","even","legacy","[target1]","present","absent","2785","186821","169554","186821","NA","163803","169554","NA","186735","NA","NA","NA","2721","2779","186817","160958","NA","NA","4001","2853","2827","2853","138798","186864","163836","186817","186821","NA","172724","NA","NA","2723","2721","2723","NA","138798","lineup1","no","6","no","1366"
"","white","no","xpyriment","legacy","legacy","0","no","relative","2","2","1","2","6","6","1","1","1","0","6","0","0","0","1","6","1","1","6","1","1","1","6","13","1","1","2","1","1","1","1","0","0","0","0","6","12/02/17 14:23:37","Executes Python code","yes","","lineup_videoFB.osexp","C:/Users/standalone/Desktop/Full Body Video 0411","no","mono","no","24","no","black","no","yes","male","768","Not sure","no","no","no","legacy","no","0","0","C:/Users/standalone/Desktop/Full Body Video 0411/subject-50.csv","[member1]","5","4","6","1","3","2","xpyriment","Jazzy James","3.1.6","0","2","legacy","1024","2","48000","-16","experiment","50","even","legacy","[target1]","present","absent","2785","186821","169554","186821","NA","217936","169554","NA","186735","NA","NA","NA","2721","2779","186817","213086","NA","NA","187919","186919","186895","186919","187919","217936","163836","186817","186821","NA","172724","NA","NA","2723","2721","2723","NA","195620","lineup1","no","1","no","1366"
"","white","no","xpyriment","legacy","legacy","0","no","relative","2","2","1","2","7","7","1","1","1","0","7","0","0","0","1","7","1","1","7","1","1","1","7","14","1","1","2","1","1","1","1","0","0","0","0","7","12/02/17 14:23:37","Executes Python code","yes","","lineup_videoFB.osexp","C:/Users/standalone/Desktop/Full Body Video 0411","no","mono","no","24","no","black","no","yes","male","768","No","no","no","no","legacy","no","1","0","C:/Users/standalone/Desktop/Full Body Video 0411/subject-50.csv","[member2]","5","4","6","1","3","2","xpyriment","Jazzy James","3.1.6","0","2","legacy","1024","2","48000","-16","experiment","50","even","legacy","[target1]","present","absent","2785","186821","169554","186821","NA","229918","169554","NA","186735","NA","NA","NA","2721","2779","186817","226957","NA","NA","187919","186919","186895","186919","219010","229918","163836","186817","186821","NA","172724","NA","NA","2723","2721","2723","NA","219010","lineup1","no","2","no","1366"
"","white","no","xpyriment","legacy","legacy","0","no","relative","2","2","1","2","8","8","1","1","1","0","8","0","0","0","1","8","1","1","8","1","1","1","8","15","1","1","2","1","1","1","1","0","0","0","0","8","12/02/17 14:23:37","Executes Python code","yes","","lineup_videoFB.osexp","C:/Users/standalone/Desktop/Full Body Video 0411","no","mono","no","24","no","black","no","yes","male","768","No","no","no","no","legacy","no","2","0","C:/Users/standalone/Desktop/Full Body Video 0411/subject-50.csv","[member3]","5","4","6","1","3","2","xpyriment","Jazzy James","3.1.6","0","2","legacy","1024","2","48000","-16","experiment","50","even","legacy","[target1]","present","absent","2785","186821","169554","186821","NA","246050","169554","NA","186735","NA","NA","NA","2721","2779","186817","243766","NA","NA","187919","186919","186895","186919","230995","246050","163836","186817","186821","NA","172724","NA","NA","2723","2721","2723","NA","230995","lineup1","no","3","no","1366"
"","white","no","xpyriment","legacy","legacy","0","no","relative","2","2","1","2","9","9","1","1","1","0","9","0","0","0","1","9","1","1","9","1","1","1","9","16","1","1","2","1","1","1","1","0","0","0","0","9","12/02/17 14:23:37","Executes Python code","yes","","lineup_videoFB.osexp","C:/Users/standalone/Desktop/Full Body Video 0411","no","mono","no","24","no","black","no","yes","male","768","No","no","no","no","legacy","no","3","0","C:/Users/standalone/Desktop/Full Body Video 0411/subject-50.csv","[member4]","5","4","6","1","3","2","xpyriment","Jazzy James","3.1.6","0","2","legacy","1024","2","48000","-16","experiment","50","even","legacy","[target1]","present","absent","2785","186821","169554","186821","NA","268003","169554","NA","186735","NA","NA","NA","2721","2779","186817","247173","NA","NA","187919","186919","186895","186919","247125","268003","163836","186817","186821","NA","172724","NA","NA","2723","2721","2723","NA","247125","lineup1","no","4","no","1366"
"","white","no","xpyriment","legacy","legacy","0","no","relative","2","2","1","2","10","10","1","1","1","0","10","0","0","0","1","10","1","1","10","1","1","1","10","17","1","1","2","1","1","1","1","0","0","0","0","10","12/02/17 14:23:37","Executes Python code","yes","","lineup_videoFB.osexp","C:/Users/standalone/Desktop/Full Body Video 0411","no","mono","no","24","no","black","no","yes","male","768","Not sure","no","no","no","legacy","no","4","0","C:/Users/standalone/Desktop/Full Body Video 0411/subject-50.csv","[member5]","5","4","6","1","3","2","xpyriment","Jazzy James","3.1.6","0","2","legacy","1024","2","48000","-16","experiment","50","even","legacy","[target1]","present","absent","2785","186821","169554","186821","NA","287893","169554","NA","186735","NA","NA","NA","2721","2779","186817","284595","NA","NA","187919","186919","186895","186919","269054","287893","163836","186817","186821","NA","172724","NA","NA","2723","2721","2723","NA","269054","lineup1","no","5","no","1366"
"","white","no","xpyriment","legacy","legacy","0","no","relative","2","2","1","2","11","11","1","1","1","0","11","0","0","0","1","11","1","1","11","1","1","1","11","18","1","1","2","1","1","1","1","0","0","0","0","11","12/02/17 14:23:37","Executes Python code","yes","","lineup_videoFB.osexp","C:/Users/standalone/Desktop/Full Body Video 0411","no","mono","no","24","no","black","no","yes","male","768","No","no","no","no","legacy","no","5","0","C:/Users/standalone/Desktop/Full Body Video 0411/subject-50.csv","[member6]","5","4","6","1","3","2","xpyriment","Jazzy James","3.1.6","0","2","legacy","1024","2","48000","-16","experiment","50","even","legacy","[target1]","present","absent","2785","186821","169554","186821","NA","301190","169554","NA","186735","NA","NA","NA","2721","2779","186817","298230","NA","NA","187919","186919","186895","186919","288961","301190","163836","186817","186821","NA","172724","NA","NA","2723","2721","2723","NA","288961","lineup1","no","6","no","1366"
"","white","no","xpyriment","legacy","legacy","0","no","relative","2","2","1","2","11","11","1","1","1","0","11","0","0","0","1","11","1","1","11","1","1","1","11","18","1","1","2","1","1","1","1","0","0","0","0","11","12/02/17 14:23:37","Executes Python code","yes","","lineup_videoFB.osexp","C:/Users/standalone/Desktop/Full Body Video 0411","no","mono","no","24","no","black","no","yes","male","768","No","No","no","No","legacy","no","5","0","C:/Users/standalone/Desktop/Full Body Video 0411/subject-50.csv","[member6]","5","4","6","1","3","2","xpyriment","Jazzy James","3.1.6","0","2","legacy","1024","2","48000","-16","experiment","50","even","legacy","[target1]","present","absent","2785","186821","305135","186821","NA","301190","305135","NA","331226","NA","NA","NA","2721","2779","186817","298230","NA","NA","187919","186919","186895","186919","288961","331226","301238","186817","186821","NA","308328","NA","NA","2723","2721","2723","NA","288961","lineup1","no","6","no","1366"
"","white","no","xpyriment","legacy","legacy","0","no","relative","2","2","1","2","11","11","1","1","1","0","11","0","0","0","1","11","1","1","11","1","1","1","11","18","1","1","2","1","1","1","1","0","0","0","0","11","12/02/17 14:23:37","Executes Python code","yes","","lineup_videoFB.osexp","C:/Users/standalone/Desktop/Full Body Video 0411","no","mono","no","24","no","black","no","yes","male","768","No","No","no","No","legacy","1pm","5","0","C:/Users/standalone/Desktop/Full Body Video 0411/subject-50.csv","[member6]","5","4","6","1","3","2","xpyriment","Jazzy James","3.1.6","0","2","legacy","1024","2","48000","-16","experiment","50","even","legacy","[target1]","present","absent","2785","186821","305135","186821","NA","301190","305135","NA","331226","338593","NA","338593","2721","2779","186817","298230","NA","NA","187919","186919","186895","186919","288961","341432","301238","186817","186821","NA","308328","NA","NA","2723","2721","2723","331290","288961","lineup1","no","6","no","1366"
