"_prepare","background","bidi","canvas_backend","clock_backend","color_backend","compensation","confidence_immediate","coordinates","count_TA_sequence_setting","count_TP_sequence_setting","count_admin_check","count_check_TA","count_check_TP","count_check_confidence_imm","count_check_identification","count_check_made_identification","count_check_multiple_identification","count_check_proceeding_identification","count_confidence_imm","count_end_of_experiment","count_experiment","count_gender_lineup_loop","count_gender_randomization_sequence","count_identification_task","count_instructions_after_multiple","count_instructions_after_proceed_identification","count_instructions_before_view","count_lineup_loop","count_lineup_procedure_loop","count_lineup_procedure_sequence","count_lineup_sequence","count_logger","count_made_identification","count_member_randomization_loop","count_member_randomization_sequence","count_multiple_identification","count_proceed_identification","count_repeat_lineup_sequence_identification","count_repeat_lineup_sequence_multiple","count_target_setting","count_target_setting_loop","count_target_setting_sequence","count_video","datetime","description","disable_garbage_collection","empty_column","experiment_file","experiment_path","font_bold","font_family","font_italic","font_size","font_underline","foreground","form_clicks","fullscreen","gender","height","identification","identification_made","identification_multiple","identification_proceed","keyboard_backend","live_row","live_row_target_setting_loop","logfile","member","member1","member2","member3","member4","member5","member6","mouse_backend","opensesame_codename","opensesame_version","repeat_cycle","round_decimals","sampler_backend","sound_buf_size","sound_channels","sound_freq","sound_sample_size","start","subject_nr","subject_parity","synth_backend","target","target1","target2","time_TA_sequence_setting","time_TP_sequence_setting","time_admin_check","time_check_TA","time_check_TP","time_check_confidence_imm","time_check_identification","time_check_made_identification","time_check_multiple_identification","time_check_proceeding_identification","time_confidence_imm","time_end_of_experiment","time_experiment","time_gender_lineup_loop","time_gender_randomization_sequence","time_identification_task","time_instructions_after_multiple","time_instructions_after_proceed_identification","time_instructions_before_view","time_lineup_loop","time_lineup_procedure_loop","time_lineup_procedure_sequence","time_lineup_sequence","time_logger","time_made_identification","time_member_randomization_loop","time_member_randomization_sequence","time_multiple_identification","time_proceed_identification","time_repeat_lineup_sequence_identification","time_repeat_lineup_sequence_multiple","time_target_setting","time_target_setting_loop","time_target_setting_sequence","time_video","title","transparent_variables","trial","uniform_coordinates","width"
"","white","no","xpyriment","legacy","legacy","0","NA","relative","NA","NA","NA","NA","NA","NA","NA","NA","NA","NA","NA","0","0","0","NA","NA","NA","NA","NA","NA","NA","NA","NA","1","NA","NA","NA","NA","NA","NA","NA","0","0","0","NA","03/21/18 14:53:39","Executes Python code","yes","","lineup_videoFB_W.osexp","C:/Users/standalone/Desktop/FB 21 Mar 2.35","no","mono","no","24","no","black","no","yes","NA","768","NA","NA","NA","NA","legacy","0","0","C:/Users/standalone/Desktop/FB 21 Mar 2.35/subject-97.csv","NA","NA","NA","NA","NA","NA","NA","xpyriment","Jazzy James","3.1.6","0","2","legacy","1024","2","48000","-16","experiment","97","odd","legacy","NA","absent","present","NA","NA","NA","NA","NA","NA","NA","NA","NA","NA","NA","NA","2274","NA","NA","NA","NA","NA","NA","NA","NA","NA","NA","2276","NA","NA","NA","NA","NA","NA","NA","2276","2274","2276","NA","lineup1","no","NA","no","1366"
"","white","no","xpyriment","legacy","legacy","0","NA","relative","0","0","NA","0","0","NA","NA","NA","NA","NA","NA","0","0","0","0","NA","NA","NA","NA","NA","0","NA","NA","2","NA","0","0","NA","NA","NA","NA","0","0","0","NA","03/21/18 14:53:39","Executes Python code","yes","","lineup_videoFB_W.osexp","C:/Users/standalone/Desktop/FB 21 Mar 2.35","no","mono","no","24","no","black","no","yes","male","768","NA","NA","NA","NA","legacy","0","0","C:/Users/standalone/Desktop/FB 21 Mar 2.35/subject-97.csv","NA","1","2","3","5","7","4","xpyriment","Jazzy James","3.1.6","0","2","legacy","1024","2","48000","-16","experiment","97","odd","legacy","[target1]","absent","present","2343","NA","NA","2343","NA","NA","NA","NA","NA","NA","NA","NA","2274","2337","2341","NA","NA","NA","NA","NA","NA","NA","NA","2343","NA","2341","2343","NA","NA","NA","NA","2276","2274","2276","NA","lineup1","no","NA","no","1366"
"","white","no","xpyriment","legacy","legacy","0","no","relative","0","0","0","0","0","0","0","0","0","0","0","0","0","0","0","0","0","0","0","0","0","0","0","4","0","0","0","0","0","0","0","0","0","0","0","03/21/18 14:53:39","Executes Python code","yes","","lineup_videoFB_W.osexp","C:/Users/standalone/Desktop/FB 21 Mar 2.35","no","mono","no","24","no","black","no","yes","male","768","No","no","no","no","legacy","0","0","C:/Users/standalone/Desktop/FB 21 Mar 2.35/subject-97.csv","[member1]","1","2","3","5","7","4","xpyriment","Jazzy James","3.1.6","0","2","legacy","1024","2","48000","-16","experiment","97","odd","legacy","[target1]","absent","present","2343","NA","NA","2343","NA","NA","74288","NA","NA","NA","NA","NA","2274","2337","2341","70574","NA","NA","3559","2425","2398","2425","3559","74288","NA","2341","2343","NA","NA","NA","NA","2276","2274","2276","62528","lineup1","no","1","no","1366"
"","white","no","xpyriment","legacy","legacy","0","no","relative","0","0","0","0","0","1","1","0","0","0","1","0","0","0","0","1","0","0","1","0","0","0","1","5","0","0","0","0","0","0","0","0","0","0","1","03/21/18 14:53:39","Executes Python code","yes","","lineup_videoFB_W.osexp","C:/Users/standalone/Desktop/FB 21 Mar 2.35","no","mono","no","24","no","black","no","yes","male","768","No","no","no","no","legacy","1","0","C:/Users/standalone/Desktop/FB 21 Mar 2.35/subject-97.csv","[member2]","1","2","3","5","7","4","xpyriment","Jazzy James","3.1.6","0","2","legacy","1024","2","48000","-16","experiment","97","odd","legacy","[target1]","absent","present","2343","NA","NA","2343","NA","NA","86124","NA","NA","NA","NA","NA","2274","2337","2341","82794","NA","NA","3559","2425","2398","2425","75283","86124","NA","2341","2343","NA","NA","NA","NA","2276","2274","2276","75283","lineup1","no","2","no","1366"
"","white","no","xpyriment","legacy","legacy","0","no","relative","0","0","0","0","0","2","2","0","0","0","2","0","0","0","0","2","0","0","2","0","0","0","2","6","0","0","0","0","0","0","0","0","0","0","2","03/21/18 14:53:39","Executes Python code","yes","","lineup_videoFB_W.osexp","C:/Users/standalone/Desktop/FB 21 Mar 2.35","no","mono","no","24","no","black","no","yes","male","768","No","no","no","no","legacy","2","0","C:/Users/standalone/Desktop/FB 21 Mar 2.35/subject-97.csv","[member3]","1","2","3","5","7","4","xpyriment","Jazzy James","3.1.6","0","2","legacy","1024","2","48000","-16","experiment","97","odd","legacy","[target1]","absent","present","2343","NA","NA","2343","NA","NA","96521","NA","NA","NA","NA","NA","2274","2337","2341","93003","NA","NA","3559","2425","2398","2425","87146","96521","NA","2341","2343","NA","NA","NA","NA","2276","2274","2276","87146","lineup1","no","3","no","1366"
"","white","no","xpyriment","legacy","legacy","0","no","relative","0","0","0","0","0","3","3","0","0","0","3","0","0","0","0","3","0","0","3","0","0","0","3","7","0","0","0","0","0","0","0","0","0","0","3","03/21/18 14:53:39","Executes Python code","yes","","lineup_videoFB_W.osexp","C:/Users/standalone/Desktop/FB 21 Mar 2.35","no","mono","no","24","no","black","no","yes","male","768","No","no","no","no","legacy","3","0","C:/Users/standalone/Desktop/FB 21 Mar 2.35/subject-97.csv","[member4]","1","2","3","5","7","4","xpyriment","Jazzy James","3.1.6","0","2","legacy","1024","2","48000","-16","experiment","97","odd","legacy","[target1]","absent","present","2343","NA","NA","2343","NA","NA","108001","NA","NA","NA","NA","NA","2274","2337","2341","104874","NA","NA","3559","2425","2398","2425","97534","108001","NA","2341","2343","NA","NA","NA","NA","2276","2274","2276","97534","lineup1","no","4","no","1366"
"","white","no","xpyriment","legacy","legacy","0","no","relative","0","0","0","0","0","4","4","0","0","0","4","0","0","0","0","4","0","0","4","0","0","0","4","8","0","0","0","0","0","0","0","0","0","0","4","03/21/18 14:53:39","Executes Python code","yes","","lineup_videoFB_W.osexp","C:/Users/standalone/Desktop/FB 21 Mar 2.35","no","mono","no","24","no","black","no","yes","male","768","No","no","no","no","legacy","4","0","C:/Users/standalone/Desktop/FB 21 Mar 2.35/subject-97.csv","[member5]","1","2","3","5","7","4","xpyriment","Jazzy James","3.1.6","0","2","legacy","1024","2","48000","-16","experiment","97","odd","legacy","[target1]","absent","present","2343","NA","NA","2343","NA","NA","118808","NA","NA","NA","NA","NA","2274","2337","2341","115289","NA","NA","3559","2425","2398","2425","109042","118808","NA","2341","2343","NA","NA","NA","NA","2276","2274","2276","109042","lineup1","no","5","no","1366"
"","white","no","xpyriment","legacy","legacy","0","no","relative","0","0","0","0","0","5","5","0","0","0","5","0","0","0","0","5","0","0","5","0","0","0","5","9","0","0","0","0","0","0","0","0","0","0","5","03/21/18 14:53:39","Executes Python code","yes","","lineup_videoFB_W.osexp","C:/Users/standalone/Desktop/FB 21 Mar 2.35","no","mono","no","24","no","black","no","yes","male","768","No","no","no","no","legacy","5","0","C:/Users/standalone/Desktop/FB 21 Mar 2.35/subject-97.csv","[member6]","1","2","3","5","7","4","xpyriment","Jazzy James","3.1.6","0","2","legacy","1024","2","48000","-16","experiment","97","odd","legacy","[target1]","absent","present","2343","NA","NA","2343","NA","NA","131310","NA","NA","NA","NA","NA","2274","2337","2341","128177","NA","NA","3559","2425","2398","2425","119802","131311","NA","2341","2343","NA","NA","NA","NA","2276","2274","2276","119802","lineup1","no","6","no","1366"
"","white","no","xpyriment","legacy","legacy","0","no","relative","0","0","0","0","0","5","5","0","0","0","5","0","0","0","0","5","0","0","5","0","0","0","5","9","0","0","0","0","0","0","0","0","0","0","5","03/21/18 14:53:39","Executes Python code","yes","","lineup_videoFB_W.osexp","C:/Users/standalone/Desktop/FB 21 Mar 2.35","no","mono","no","24","no","black","no","yes","male","768","No","No","no","No","legacy","5","0","C:/Users/standalone/Desktop/FB 21 Mar 2.35/subject-97.csv","[member6]","1","2","3","5","7","4","xpyriment","Jazzy James","3.1.6","0","2","legacy","1024","2","48000","-16","experiment","97","odd","legacy","[target1]","absent","present","2343","NA","135722","2343","NA","NA","131310","135722","NA","148389","NA","NA","2274","2337","2341","128177","NA","NA","3559","2425","2398","2425","119802","148389","131353","2341","2343","NA","142769","NA","NA","2276","2274","2276","119802","lineup1","no","6","no","1366"
"","white","no","xpyriment","legacy","legacy","0","no","relative","2","2","0","2","2","5","5","0","0","0","5","0","0","0","1","5","0","0","5","0","1","0","5","11","0","1","2","0","0","0","0","0","0","0","5","03/21/18 14:53:39","Executes Python code","yes","","lineup_videoFB_W.osexp","C:/Users/standalone/Desktop/FB 21 Mar 2.35","no","mono","no","24","no","black","no","yes","female","768","No","No","no","No","legacy","0","0","C:/Users/standalone/Desktop/FB 21 Mar 2.35/subject-97.csv","[member6]","2","3","4","5","1","6","xpyriment","Jazzy James","3.1.6","0","2","legacy","1024","2","48000","-16","experiment","97","odd","legacy","[target2]","absent","present","2343","148461","135722","2343","148461","NA","131310","135722","NA","148389","NA","NA","2274","2337","148457","128177","NA","NA","3559","2425","2398","2425","119802","148461","131353","148457","148461","NA","142769","NA","NA","2276","2274","2276","119802","lineup1","no","6","no","1366"
"","white","no","xpyriment","legacy","legacy","0","no","relative","2","2","0","2","2","5","5","0","0","0","5","0","0","0","1","5","0","0","5","0","1","0","5","11","0","1","2","0","0","0","0","0","0","0","5","03/21/18 14:53:39","Executes Python code","yes","","lineup_videoFB_W.osexp","C:/Users/standalone/Desktop/FB 21 Mar 2.35","no","mono","no","24","no","black","no","yes","female","768","No","No","no","No","legacy","0","0","C:/Users/standalone/Desktop/FB 21 Mar 2.35/subject-97.csv","[member6]","2","3","4","5","1","6","xpyriment","Jazzy James","3.1.6","0","2","legacy","1024","2","48000","-16","experiment","97","odd","legacy","[target2]","absent","present","2343","148461","135722","2343","148461","NA","131310","135722","NA","148389","NA","NA","2274","2337","148457","128177","NA","NA","3559","2425","2398","2425","119802","148500","131353","148457","148461","NA","142769","NA","NA","2276","2274","2276","119802","lineup1","no","6","no","1366"
"","white","no","xpyriment","legacy","legacy","0","no","relative","2","2","1","2","2","6","6","1","1","1","6","0","0","0","1","6","1","1","6","1","1","1","6","13","1","1","2","1","1","1","1","0","0","0","6","03/21/18 14:53:39","Executes Python code","yes","","lineup_videoFB_W.osexp","C:/Users/standalone/Desktop/FB 21 Mar 2.35","no","mono","no","24","no","black","no","yes","female","768","No","no","no","no","legacy","0","0","C:/Users/standalone/Desktop/FB 21 Mar 2.35/subject-97.csv","[member1]","2","3","4","5","1","6","xpyriment","Jazzy James","3.1.6","0","2","legacy","1024","2","48000","-16","experiment","97","odd","legacy","[target2]","absent","present","2343","148461","135722","2343","148461","NA","161817","135722","NA","148389","NA","NA","2274","2337","148457","159221","NA","NA","149592","148560","148535","148560","149592","161817","131353","148457","148461","NA","142769","NA","NA","2276","2274","2276","153651","lineup1","no","1","no","1366"
"","white","no","xpyriment","legacy","legacy","0","40","relative","2","2","1","2","2","7","7","1","1","1","7","0","0","0","1","7","1","1","7","1","1","1","7","14","1","1","2","1","1","1","1","0","0","0","7","03/21/18 14:53:39","Executes Python code","yes","","lineup_videoFB_W.osexp","C:/Users/standalone/Desktop/FB 21 Mar 2.35","no","mono","no","24","no","black","no","yes","female","768","Yes","no","no","no","legacy","1","0","C:/Users/standalone/Desktop/FB 21 Mar 2.35/subject-97.csv","[member2]","2","3","4","5","1","6","xpyriment","Jazzy James","3.1.6","0","2","legacy","1024","2","48000","-16","experiment","97","odd","legacy","[target2]","absent","present","2343","148461","135722","2343","148461","199891","190812","135722","NA","148389","190813","NA","2274","2337","148457","187085","NA","NA","149592","148560","148535","148560","162917","199891","131353","148457","148461","NA","142769","NA","NA","2276","2274","2276","162918","lineup1","no","2","no","1366"
"","white","no","xpyriment","legacy","legacy","0","no","relative","2","2","1","2","2","8","8","1","1","1","8","0","0","0","1","8","1","1","8","1","1","1","8","15","1","1","2","1","1","1","1","0","0","0","8","03/21/18 14:53:39","Executes Python code","yes","","lineup_videoFB_W.osexp","C:/Users/standalone/Desktop/FB 21 Mar 2.35","no","mono","no","24","no","black","no","yes","female","768","No","no","no","no","legacy","2","0","C:/Users/standalone/Desktop/FB 21 Mar 2.35/subject-97.csv","[member3]","2","3","4","5","1","6","xpyriment","Jazzy James","3.1.6","0","2","legacy","1024","2","48000","-16","experiment","97","odd","legacy","[target2]","absent","present","2343","148461","135722","2343","148461","199891","208698","135722","NA","148389","190813","NA","2274","2337","148457","205748","NA","NA","149592","148560","148535","148560","200990","208698","131353","148457","148461","NA","142769","NA","NA","2276","2274","2276","200990","lineup1","no","3","no","1366"
"","white","no","xpyriment","legacy","legacy","0","no","relative","2","2","1","2","2","9","9","1","1","1","9","0","0","0","1","9","1","1","9","1","1","1","9","16","1","1","2","1","1","1","1","0","0","0","9","03/21/18 14:53:39","Executes Python code","yes","","lineup_videoFB_W.osexp","C:/Users/standalone/Desktop/FB 21 Mar 2.35","no","mono","no","24","no","black","no","yes","female","768","Not sure","no","no","no","legacy","3","0","C:/Users/standalone/Desktop/FB 21 Mar 2.35/subject-97.csv","[member4]","2","3","4","5","1","6","xpyriment","Jazzy James","3.1.6","0","2","legacy","1024","2","48000","-16","experiment","97","odd","legacy","[target2]","absent","present","2343","148461","135722","2343","148461","199891","232919","135722","NA","148389","190813","NA","2274","2337","148457","230333","NA","NA","149592","148560","148535","148560","209760","232919","131353","148457","148461","NA","142769","NA","NA","2276","2274","2276","209760","lineup1","no","4","no","1366"
"","white","no","xpyriment","legacy","legacy","0","no","relative","2","2","1","2","2","10","10","1","1","1","10","0","0","0","1","10","1","1","10","1","1","1","10","17","1","1","2","1","1","1","1","0","0","0","10","03/21/18 14:53:39","Executes Python code","yes","","lineup_videoFB_W.osexp","C:/Users/standalone/Desktop/FB 21 Mar 2.35","no","mono","no","24","no","black","no","yes","female","768","No","no","no","no","legacy","4","0","C:/Users/standalone/Desktop/FB 21 Mar 2.35/subject-97.csv","[member5]","2","3","4","5","1","6","xpyriment","Jazzy James","3.1.6","0","2","legacy","1024","2","48000","-16","experiment","97","odd","legacy","[target2]","absent","present","2343","148461","135722","2343","148461","199891","242868","135722","NA","148389","190813","NA","2274","2337","148457","239730","NA","NA","149592","148560","148535","148560","234000","242868","131353","148457","148461","NA","142769","NA","NA","2276","2274","2276","234000","lineup1","no","5","no","1366"
"","white","no","xpyriment","legacy","legacy","0","no","relative","2","2","1","2","2","11","11","1","1","1","11","0","0","0","1","11","1","1","11","1","1","1","11","18","1","1","2","1","1","1","1","0","0","0","11","03/21/18 14:53:39","Executes Python code","yes","","lineup_videoFB_W.osexp","C:/Users/standalone/Desktop/FB 21 Mar 2.35","no","mono","no","24","no","black","no","yes","female","768","No","no","no","no","legacy","5","0","C:/Users/standalone/Desktop/FB 21 Mar 2.35/subject-97.csv","[member6]","2","3","4","5","1","6","xpyriment","Jazzy James","3.1.6","0","2","legacy","1024","2","48000","-16","experiment","97","odd","legacy","[target2]","absent","present","2343","148461","135722","2343","148461","199891","256947","135722","NA","148389","190813","NA","2274","2337","148457","254748","NA","NA","149592","148560","148535","148560","243863","256947","131353","148457","148461","NA","142769","NA","NA","2276","2274","2276","243863","lineup1","no","6","no","1366"
"","white","no","xpyriment","legacy","legacy","0","no","relative","2","2","1","2","2","11","11","1","1","1","11","0","0","0","1","11","1","1","11","1","1","1","11","18","1","1","2","1","1","1","1","0","0","0","11","03/21/18 14:53:39","Executes Python code","yes","","lineup_videoFB_W.osexp","C:/Users/standalone/Desktop/FB 21 Mar 2.35","no","mono","no","24","no","black","no","yes","female","768","No","Yes","One","No","legacy","5","0","C:/Users/standalone/Desktop/FB 21 Mar 2.35/subject-97.csv","[member6]","2","3","4","5","1","6","xpyriment","Jazzy James","3.1.6","0","2","legacy","1024","2","48000","-16","experiment","97","odd","legacy","[target2]","absent","present","2343","148461","263559","2343","148461","199891","256947","259618","263559","277792","190813","NA","2274","2337","148457","254748","NA","NA","149592","148560","148535","148560","243863","277792","256995","148457","148461","259619","272791","NA","NA","2276","2274","2276","243863","lineup1","no","6","no","1366"
"","white","no","xpyriment","legacy","legacy","0","no","relative","2","2","1","2","2","11","11","1","1","1","11","0","0","0","1","11","1","1","11","1","1","1","11","18","1","1","2","1","1","1","1","0","0","0","11","03/21/18 14:53:39","Executes Python code","yes","","lineup_videoFB_W.osexp","C:/Users/standalone/Desktop/FB 21 Mar 2.35","no","mono","no","24","no","black","no","yes","female","768","No","Yes","One","No","legacy","5","0","C:/Users/standalone/Desktop/FB 21 Mar 2.35/subject-97.csv","[member6]","2","3","4","5","1","6","xpyriment","Jazzy James","3.1.6","0","2","legacy","1024","2","48000","-16","experiment","97","odd","legacy","[target2]","absent","present","2343","148461","263559","2343","148461","199891","256947","259618","263559","277792","190813","277854","2274","2337","148457","254748","NA","NA","149592","148560","148535","148560","243863","279397","256995","148457","148461","259619","272791","NA","NA","2276","2274","2276","243863","lineup1","no","6","no","1366"
