"_prepare","background","bidi","canvas_backend","clock_backend","color_backend","compensation","confidence_immediate","coordinates","count_TA_sequence_setting","count_TP_sequence_setting","count_admin_check","count_check_TA","count_check_TP","count_check_confidence_imm","count_check_identification","count_check_made_identification","count_check_multiple_identification","count_check_proceeding_identification","count_confidence_imm","count_end_of_experiment","count_experiment","count_gender_lineup_loop","count_gender_randomization_sequence","count_identification_task","count_instructions_after_multiple","count_instructions_after_proceed_identification","count_instructions_before_view","count_lineup_loop","count_lineup_procedure_loop","count_lineup_procedure_sequence","count_lineup_sequence","count_logger","count_made_identification","count_member_randomization_loop","count_member_randomization_sequence","count_multiple_identification","count_proceed_identification","count_repeat_lineup_sequence_identification","count_repeat_lineup_sequence_multiple","count_target_setting","count_target_setting_loop","count_target_setting_sequence","count_video","datetime","description","disable_garbage_collection","empty_column","experiment_file","experiment_path","font_bold","font_family","font_italic","font_size","font_underline","foreground","form_clicks","fullscreen","gender","height","identification","identification_made","identification_multiple","identification_proceed","keyboard_backend","live_row","live_row_target_setting_loop","logfile","member","member1","member2","member3","member4","member5","member6","mouse_backend","opensesame_codename","opensesame_version","repeat_cycle","round_decimals","sampler_backend","sound_buf_size","sound_channels","sound_freq","sound_sample_size","start","subject_nr","subject_parity","synth_backend","target","target1","target2","time_TA_sequence_setting","time_TP_sequence_setting","time_admin_check","time_check_TA","time_check_TP","time_check_confidence_imm","time_check_identification","time_check_made_identification","time_check_multiple_identification","time_check_proceeding_identification","time_confidence_imm","time_end_of_experiment","time_experiment","time_gender_lineup_loop","time_gender_randomization_sequence","time_identification_task","time_instructions_after_multiple","time_instructions_after_proceed_identification","time_instructions_before_view","time_lineup_loop","time_lineup_procedure_loop","time_lineup_procedure_sequence","time_lineup_sequence","time_logger","time_made_identification","time_member_randomization_loop","time_member_randomization_sequence","time_multiple_identification","time_proceed_identification","time_repeat_lineup_sequence_identification","time_repeat_lineup_sequence_multiple","time_target_setting","time_target_setting_loop","time_target_setting_sequence","time_video","title","transparent_variables","trial","uniform_coordinates","width"
"","white","no","xpyriment","legacy","legacy","0","NA","relative","NA","NA","NA","NA","NA","NA","NA","NA","NA","NA","NA","0","0","0","NA","NA","NA","NA","NA","NA","NA","NA","NA","1","NA","NA","NA","NA","NA","NA","NA","0","0","0","NA","03/21/18 15:27:17","Executes Python code","yes","","lineup_videoFB_W.osexp","C:/Users/standalone/Desktop/FB 21 Mar 2.35","no","mono","no","24","no","black","no","yes","NA","768","NA","NA","NA","NA","legacy","0","0","C:/Users/standalone/Desktop/FB 21 Mar 2.35/subject-105.csv","NA","NA","NA","NA","NA","NA","NA","xpyriment","Jazzy James","3.1.6","0","2","legacy","1024","2","48000","-16","experiment","105","odd","legacy","NA","present","absent","NA","NA","NA","NA","NA","NA","NA","NA","NA","NA","NA","NA","2481","NA","NA","NA","NA","NA","NA","NA","NA","NA","NA","2483","NA","NA","NA","NA","NA","NA","NA","2483","2481","2482","NA","lineup1","no","NA","no","1366"
"","white","no","xpyriment","legacy","legacy","0","NA","relative","0","0","NA","0","0","NA","NA","NA","NA","NA","NA","0","0","0","0","NA","NA","NA","NA","NA","0","NA","NA","2","NA","0","0","NA","NA","NA","NA","0","0","0","NA","03/21/18 15:27:17","Executes Python code","yes","","lineup_videoFB_W.osexp","C:/Users/standalone/Desktop/FB 21 Mar 2.35","no","mono","no","24","no","black","no","yes","female","768","NA","NA","NA","NA","legacy","0","0","C:/Users/standalone/Desktop/FB 21 Mar 2.35/subject-105.csv","NA","5","3","1","7","4","2","xpyriment","Jazzy James","3.1.6","0","2","legacy","1024","2","48000","-16","experiment","105","odd","legacy","[target2]","present","absent","2551","NA","NA","2551","NA","NA","NA","NA","NA","NA","NA","NA","2481","2545","2549","NA","NA","NA","NA","NA","NA","NA","NA","2551","NA","2549","2551","NA","NA","NA","NA","2483","2481","2482","NA","lineup1","no","NA","no","1366"
"","white","no","xpyriment","legacy","legacy","0","no","relative","0","0","0","0","0","0","0","0","0","0","0","0","0","0","0","0","0","0","0","0","0","0","0","4","0","0","0","0","0","0","0","0","0","0","0","03/21/18 15:27:17","Executes Python code","yes","","lineup_videoFB_W.osexp","C:/Users/standalone/Desktop/FB 21 Mar 2.35","no","mono","no","24","no","black","no","yes","female","768","No","no","no","no","legacy","0","0","C:/Users/standalone/Desktop/FB 21 Mar 2.35/subject-105.csv","[member1]","5","3","1","7","4","2","xpyriment","Jazzy James","3.1.6","0","2","legacy","1024","2","48000","-16","experiment","105","odd","legacy","[target2]","present","absent","2551","NA","NA","2551","NA","NA","140274","NA","NA","NA","NA","NA","2481","2545","2549","135236","NA","NA","3741","2618","2595","2618","3741","140274","NA","2549","2551","NA","NA","NA","NA","2483","2481","2482","99614","lineup1","no","1","no","1366"
"","white","no","xpyriment","legacy","legacy","0","no","relative","0","0","0","0","0","1","1","0","0","0","1","0","0","0","0","1","0","0","1","0","0","0","1","5","0","0","0","0","0","0","0","0","0","0","1","03/21/18 15:27:17","Executes Python code","yes","","lineup_videoFB_W.osexp","C:/Users/standalone/Desktop/FB 21 Mar 2.35","no","mono","no","24","no","black","no","yes","female","768","No","no","no","no","legacy","1","0","C:/Users/standalone/Desktop/FB 21 Mar 2.35/subject-105.csv","[member2]","5","3","1","7","4","2","xpyriment","Jazzy James","3.1.6","0","2","legacy","1024","2","48000","-16","experiment","105","odd","legacy","[target2]","present","absent","2551","NA","NA","2551","NA","NA","148660","NA","NA","NA","NA","NA","2481","2545","2549","146275","NA","NA","3741","2618","2595","2618","141365","148660","NA","2549","2551","NA","NA","NA","NA","2483","2481","2482","141365","lineup1","no","2","no","1366"
"","white","no","xpyriment","legacy","legacy","0","no","relative","0","0","0","0","0","2","2","0","0","0","2","0","0","0","0","2","0","0","2","0","0","0","2","6","0","0","0","0","0","0","0","0","0","0","2","03/21/18 15:27:17","Executes Python code","yes","","lineup_videoFB_W.osexp","C:/Users/standalone/Desktop/FB 21 Mar 2.35","no","mono","no","24","no","black","no","yes","female","768","No","no","no","no","legacy","2","0","C:/Users/standalone/Desktop/FB 21 Mar 2.35/subject-105.csv","[member3]","5","3","1","7","4","2","xpyriment","Jazzy James","3.1.6","0","2","legacy","1024","2","48000","-16","experiment","105","odd","legacy","[target2]","present","absent","2551","NA","NA","2551","NA","NA","158013","NA","NA","NA","NA","NA","2481","2545","2549","155244","NA","NA","3741","2618","2595","2618","149739","158013","NA","2549","2551","NA","NA","NA","NA","2483","2481","2482","149739","lineup1","no","3","no","1366"
"","white","no","xpyriment","legacy","legacy","0","no","relative","0","0","0","0","0","3","3","0","0","0","3","0","0","0","0","3","0","0","3","0","0","0","3","7","0","0","0","0","0","0","0","0","0","0","3","03/21/18 15:27:17","Executes Python code","yes","","lineup_videoFB_W.osexp","C:/Users/standalone/Desktop/FB 21 Mar 2.35","no","mono","no","24","no","black","no","yes","female","768","No","no","no","no","legacy","3","0","C:/Users/standalone/Desktop/FB 21 Mar 2.35/subject-105.csv","[member4]","5","3","1","7","4","2","xpyriment","Jazzy James","3.1.6","0","2","legacy","1024","2","48000","-16","experiment","105","odd","legacy","[target2]","present","absent","2551","NA","NA","2551","NA","NA","162826","NA","NA","NA","NA","NA","2481","2545","2549","160545","NA","NA","3741","2618","2595","2618","159063","162826","NA","2549","2551","NA","NA","NA","NA","2483","2481","2482","159063","lineup1","no","4","no","1366"
"","white","no","xpyriment","legacy","legacy","0","no","relative","0","0","0","0","0","4","4","0","0","0","4","0","0","0","0","4","0","0","4","0","0","0","4","8","0","0","0","0","0","0","0","0","0","0","4","03/21/18 15:27:17","Executes Python code","yes","","lineup_videoFB_W.osexp","C:/Users/standalone/Desktop/FB 21 Mar 2.35","no","mono","no","24","no","black","no","yes","female","768","No","no","no","no","legacy","4","0","C:/Users/standalone/Desktop/FB 21 Mar 2.35/subject-105.csv","[member5]","5","3","1","7","4","2","xpyriment","Jazzy James","3.1.6","0","2","legacy","1024","2","48000","-16","experiment","105","odd","legacy","[target2]","present","absent","2551","NA","NA","2551","NA","NA","171120","NA","NA","NA","NA","NA","2481","2545","2549","168724","NA","NA","3741","2618","2595","2618","163946","171120","NA","2549","2551","NA","NA","NA","NA","2483","2481","2482","163946","lineup1","no","5","no","1366"
"","white","no","xpyriment","legacy","legacy","0","no","relative","0","0","0","0","0","5","5","0","0","0","5","0","0","0","0","5","0","0","5","0","0","0","5","9","0","0","0","0","0","0","0","0","0","0","5","03/21/18 15:27:17","Executes Python code","yes","","lineup_videoFB_W.osexp","C:/Users/standalone/Desktop/FB 21 Mar 2.35","no","mono","no","24","no","black","no","yes","female","768","No","no","no","no","legacy","5","0","C:/Users/standalone/Desktop/FB 21 Mar 2.35/subject-105.csv","[member6]","5","3","1","7","4","2","xpyriment","Jazzy James","3.1.6","0","2","legacy","1024","2","48000","-16","experiment","105","odd","legacy","[target2]","present","absent","2551","NA","NA","2551","NA","NA","180632","NA","NA","NA","NA","NA","2481","2545","2549","178629","NA","NA","3741","2618","2595","2618","172196","180632","NA","2549","2551","NA","NA","NA","NA","2483","2481","2482","172196","lineup1","no","6","no","1366"
"","white","no","xpyriment","legacy","legacy","0","no","relative","0","0","1","0","0","6","6","1","1","1","6","0","0","0","0","6","1","1","6","1","0","1","6","11","1","0","0","1","1","1","1","0","0","0","6","03/21/18 15:27:17","Executes Python code","yes","","lineup_videoFB_W.osexp","C:/Users/standalone/Desktop/FB 21 Mar 2.35","no","mono","no","24","no","black","no","yes","female","768","No","no","no","no","legacy","0","0","C:/Users/standalone/Desktop/FB 21 Mar 2.35/subject-105.csv","[member1]","5","3","1","7","4","2","xpyriment","Jazzy James","3.1.6","0","2","legacy","1024","2","48000","-16","experiment","105","odd","legacy","[target2]","present","absent","2551","NA","185663","2551","NA","NA","218712","185663","NA","208087","NA","NA","2481","2545","2549","215801","NA","208087","212241","211247","2595","211247","212241","218712","180682","2549","2551","NA","189012","211221","NA","2483","2481","2482","213278","lineup1","no","1","no","1366"
"","white","no","xpyriment","legacy","legacy","0","no","relative","0","0","1","0","0","7","7","1","1","1","7","0","0","0","0","7","1","1","7","1","0","1","7","12","1","0","0","1","1","1","1","0","0","0","7","03/21/18 15:27:17","Executes Python code","yes","","lineup_videoFB_W.osexp","C:/Users/standalone/Desktop/FB 21 Mar 2.35","no","mono","no","24","no","black","no","yes","female","768","Not sure","no","no","no","legacy","1","0","C:/Users/standalone/Desktop/FB 21 Mar 2.35/subject-105.csv","[member2]","5","3","1","7","4","2","xpyriment","Jazzy James","3.1.6","0","2","legacy","1024","2","48000","-16","experiment","105","odd","legacy","[target2]","present","absent","2551","NA","185663","2551","NA","NA","229234","185663","NA","208087","NA","NA","2481","2545","2549","225523","NA","208087","212241","211247","2595","211247","219813","229234","180682","2549","2551","NA","189012","211221","NA","2483","2481","2482","219813","lineup1","no","2","no","1366"
"","white","no","xpyriment","legacy","legacy","0","no","relative","0","0","1","0","0","8","8","1","1","1","8","0","0","0","0","8","1","1","8","1","0","1","8","13","1","0","0","1","1","1","1","0","0","0","8","03/21/18 15:27:17","Executes Python code","yes","","lineup_videoFB_W.osexp","C:/Users/standalone/Desktop/FB 21 Mar 2.35","no","mono","no","24","no","black","no","yes","female","768","Not sure","no","no","no","legacy","2","0","C:/Users/standalone/Desktop/FB 21 Mar 2.35/subject-105.csv","[member3]","5","3","1","7","4","2","xpyriment","Jazzy James","3.1.6","0","2","legacy","1024","2","48000","-16","experiment","105","odd","legacy","[target2]","present","absent","2551","NA","185663","2551","NA","NA","236928","185663","NA","208087","NA","NA","2481","2545","2549","234917","NA","208087","212241","211247","2595","211247","230318","236928","180682","2549","2551","NA","189012","211221","NA","2483","2481","2482","230319","lineup1","no","3","no","1366"
"","white","no","xpyriment","legacy","legacy","0","no","relative","0","0","1","0","0","9","9","1","1","1","9","0","0","0","0","9","1","1","9","1","0","1","9","14","1","0","0","1","1","1","1","0","0","0","9","03/21/18 15:27:17","Executes Python code","yes","","lineup_videoFB_W.osexp","C:/Users/standalone/Desktop/FB 21 Mar 2.35","no","mono","no","24","no","black","no","yes","female","768","No","no","no","no","legacy","3","0","C:/Users/standalone/Desktop/FB 21 Mar 2.35/subject-105.csv","[member4]","5","3","1","7","4","2","xpyriment","Jazzy James","3.1.6","0","2","legacy","1024","2","48000","-16","experiment","105","odd","legacy","[target2]","present","absent","2551","NA","185663","2551","NA","NA","241054","185663","NA","208087","NA","NA","2481","2545","2549","238977","NA","208087","212241","211247","2595","211247","237995","241054","180682","2549","2551","NA","189012","211221","NA","2483","2481","2482","237996","lineup1","no","4","no","1366"
"","white","no","xpyriment","legacy","legacy","0","no","relative","0","0","1","0","0","10","10","1","1","1","10","0","0","0","0","10","1","1","10","1","0","1","10","15","1","0","0","1","1","1","1","0","0","0","10","03/21/18 15:27:17","Executes Python code","yes","","lineup_videoFB_W.osexp","C:/Users/standalone/Desktop/FB 21 Mar 2.35","no","mono","no","24","no","black","no","yes","female","768","No","no","no","no","legacy","4","0","C:/Users/standalone/Desktop/FB 21 Mar 2.35/subject-105.csv","[member5]","5","3","1","7","4","2","xpyriment","Jazzy James","3.1.6","0","2","legacy","1024","2","48000","-16","experiment","105","odd","legacy","[target2]","present","absent","2551","NA","185663","2551","NA","NA","246786","185663","NA","208087","NA","NA","2481","2545","2549","244664","NA","208087","212241","211247","2595","211247","242160","246786","180682","2549","2551","NA","189012","211221","NA","2483","2481","2482","242161","lineup1","no","5","no","1366"
"","white","no","xpyriment","legacy","legacy","0","no","relative","0","0","1","0","0","11","11","1","1","1","11","0","0","0","0","11","1","1","11","1","0","1","11","16","1","0","0","1","1","1","1","0","0","0","11","03/21/18 15:27:17","Executes Python code","yes","","lineup_videoFB_W.osexp","C:/Users/standalone/Desktop/FB 21 Mar 2.35","no","mono","no","24","no","black","no","yes","female","768","No","no","no","no","legacy","5","0","C:/Users/standalone/Desktop/FB 21 Mar 2.35/subject-105.csv","[member6]","5","3","1","7","4","2","xpyriment","Jazzy James","3.1.6","0","2","legacy","1024","2","48000","-16","experiment","105","odd","legacy","[target2]","present","absent","2551","NA","185663","2551","NA","NA","254170","185663","NA","208087","NA","NA","2481","2545","2549","252169","NA","208087","212241","211247","2595","211247","247889","254170","180682","2549","2551","NA","189012","211221","NA","2483","2481","2482","247889","lineup1","no","6","no","1366"
"","white","no","xpyriment","legacy","legacy","0","no","relative","0","0","1","0","0","11","11","1","1","1","11","0","0","0","0","11","1","1","11","1","0","1","11","16","1","0","0","1","1","1","1","0","0","0","11","03/21/18 15:27:17","Executes Python code","yes","","lineup_videoFB_W.osexp","C:/Users/standalone/Desktop/FB 21 Mar 2.35","no","mono","no","24","no","black","no","yes","female","768","No","No","no","No","legacy","5","0","C:/Users/standalone/Desktop/FB 21 Mar 2.35/subject-105.csv","[member6]","5","3","1","7","4","2","xpyriment","Jazzy James","3.1.6","0","2","legacy","1024","2","48000","-16","experiment","105","odd","legacy","[target2]","present","absent","2551","NA","271545","2551","NA","NA","254170","271545","NA","280651","NA","NA","2481","2545","2549","252169","NA","208087","212241","211247","2595","211247","247889","280651","254221","2549","2551","NA","274709","211221","NA","2483","2481","2482","247889","lineup1","no","6","no","1366"
"","white","no","xpyriment","legacy","legacy","0","no","relative","0","0","1","0","0","11","11","1","1","1","11","0","0","0","0","11","1","1","11","1","0","1","11","16","1","0","0","1","1","1","1","0","0","0","11","03/21/18 15:27:17","Executes Python code","yes","","lineup_videoFB_W.osexp","C:/Users/standalone/Desktop/FB 21 Mar 2.35","no","mono","no","24","no","black","no","yes","female","768","No","No","no","No","legacy","5","0","C:/Users/standalone/Desktop/FB 21 Mar 2.35/subject-105.csv","[member6]","5","3","1","7","4","2","xpyriment","Jazzy James","3.1.6","0","2","legacy","1024","2","48000","-16","experiment","105","odd","legacy","[target2]","present","absent","2551","NA","271545","2551","NA","NA","254170","271545","NA","280651","NA","NA","2481","2545","2549","252169","NA","208087","212241","211247","2595","211247","247889","280711","254221","2549","2551","NA","274709","211221","NA","2483","2481","2482","247889","lineup1","no","6","no","1366"
"","white","no","xpyriment","legacy","legacy","0","no","relative","1","1","1","1","1","11","11","1","1","1","11","0","0","0","1","11","1","1","11","1","1","1","11","17","1","1","1","1","1","1","1","0","0","0","11","03/21/18 15:27:17","Executes Python code","yes","","lineup_videoFB_W.osexp","C:/Users/standalone/Desktop/FB 21 Mar 2.35","no","mono","no","24","no","black","no","yes","male","768","No","No","no","No","legacy","0","0","C:/Users/standalone/Desktop/FB 21 Mar 2.35/subject-105.csv","[member6]","2","6","5","4","1","3","xpyriment","Jazzy James","3.1.6","0","2","legacy","1024","2","48000","-16","experiment","105","odd","legacy","[target1]","present","absent","2551","280785","271545","2551","280785","NA","254170","271545","NA","280651","NA","NA","2481","2545","280782","252169","NA","208087","212241","211247","2595","211247","247889","280785","254221","280782","280784","NA","274709","211221","NA","2483","2481","2482","247889","lineup1","no","6","no","1366"
"","white","no","xpyriment","legacy","legacy","0","no","relative","1","1","2","1","1","12","12","2","2","2","12","0","0","0","1","12","2","2","12","2","1","2","12","19","2","1","1","2","2","2","2","0","0","0","12","03/21/18 15:27:17","Executes Python code","yes","","lineup_videoFB_W.osexp","C:/Users/standalone/Desktop/FB 21 Mar 2.35","no","mono","no","24","no","black","no","yes","male","768","No","no","no","no","legacy","0","0","C:/Users/standalone/Desktop/FB 21 Mar 2.35/subject-105.csv","[member1]","2","6","5","4","1","3","xpyriment","Jazzy James","3.1.6","0","2","legacy","1024","2","48000","-16","experiment","105","odd","legacy","[target1]","present","absent","2551","280785","271545","2551","280785","NA","294256","271545","NA","280651","NA","NA","2481","2545","280782","292057","NA","208087","281788","280841","280816","280841","281787","294256","254221","280782","280784","NA","274709","211221","NA","2483","2481","2482","286712","lineup1","no","1","no","1366"
"","white","no","xpyriment","legacy","legacy","0","100","relative","1","1","2","1","1","13","13","2","2","2","13","0","0","0","1","13","2","2","13","2","1","2","13","20","2","1","1","2","2","2","2","0","0","0","13","03/21/18 15:27:17","Executes Python code","yes","","lineup_videoFB_W.osexp","C:/Users/standalone/Desktop/FB 21 Mar 2.35","no","mono","no","24","no","black","no","yes","male","768","Yes","no","no","no","legacy","1","0","C:/Users/standalone/Desktop/FB 21 Mar 2.35/subject-105.csv","[member2]","2","6","5","4","1","3","xpyriment","Jazzy James","3.1.6","0","2","legacy","1024","2","48000","-16","experiment","105","odd","legacy","[target1]","present","absent","2551","280785","271545","2551","280785","305060","300115","271545","NA","280651","300115","NA","2481","2545","280782","297802","NA","208087","281788","280841","280816","280841","295307","305060","254221","280782","280784","NA","274709","211221","NA","2483","2481","2482","295307","lineup1","no","2","no","1366"
"","white","no","xpyriment","legacy","legacy","0","no","relative","1","1","2","1","1","14","14","2","2","2","14","0","0","0","1","14","2","2","14","2","1","2","14","21","2","1","1","2","2","2","2","0","0","0","14","03/21/18 15:27:17","Executes Python code","yes","","lineup_videoFB_W.osexp","C:/Users/standalone/Desktop/FB 21 Mar 2.35","no","mono","no","24","no","black","no","yes","male","768","Not sure","no","no","no","legacy","2","0","C:/Users/standalone/Desktop/FB 21 Mar 2.35/subject-105.csv","[member3]","2","6","5","4","1","3","xpyriment","Jazzy James","3.1.6","0","2","legacy","1024","2","48000","-16","experiment","105","odd","legacy","[target1]","present","absent","2551","280785","271545","2551","280785","305060","315376","271545","NA","280651","300115","NA","2481","2545","280782","312041","NA","208087","281788","280841","280816","280841","306082","315376","254221","280782","280784","NA","274709","211221","NA","2483","2481","2482","306082","lineup1","no","3","no","1366"
"","white","no","xpyriment","legacy","legacy","0","no","relative","1","1","2","1","1","15","15","2","2","2","15","0","0","0","1","15","2","2","15","2","1","2","15","22","2","1","1","2","2","2","2","0","0","0","15","03/21/18 15:27:17","Executes Python code","yes","","lineup_videoFB_W.osexp","C:/Users/standalone/Desktop/FB 21 Mar 2.35","no","mono","no","24","no","black","no","yes","male","768","No","no","no","no","legacy","3","0","C:/Users/standalone/Desktop/FB 21 Mar 2.35/subject-105.csv","[member4]","2","6","5","4","1","3","xpyriment","Jazzy James","3.1.6","0","2","legacy","1024","2","48000","-16","experiment","105","odd","legacy","[target1]","present","absent","2551","280785","271545","2551","280785","305060","320325","271545","NA","280651","300115","NA","2481","2545","280782","318249","NA","208087","281788","280841","280816","280841","316378","320325","254221","280782","280784","NA","274709","211221","NA","2483","2481","2482","316378","lineup1","no","4","no","1366"
"","white","no","xpyriment","legacy","legacy","0","no","relative","1","1","2","1","1","16","16","2","2","2","16","0","0","0","1","16","2","2","16","2","1","2","16","23","2","1","1","2","2","2","2","0","0","0","16","03/21/18 15:27:17","Executes Python code","yes","","lineup_videoFB_W.osexp","C:/Users/standalone/Desktop/FB 21 Mar 2.35","no","mono","no","24","no","black","no","yes","male","768","Not sure","no","no","no","legacy","4","0","C:/Users/standalone/Desktop/FB 21 Mar 2.35/subject-105.csv","[member5]","2","6","5","4","1","3","xpyriment","Jazzy James","3.1.6","0","2","legacy","1024","2","48000","-16","experiment","105","odd","legacy","[target1]","present","absent","2551","280785","271545","2551","280785","305060","325750","271545","NA","280651","300115","NA","2481","2545","280782","323633","NA","208087","281788","280841","280816","280841","321361","325750","254221","280782","280784","NA","274709","211221","NA","2483","2481","2482","321361","lineup1","no","5","no","1366"
"","white","no","xpyriment","legacy","legacy","0","no","relative","1","1","2","1","1","17","17","2","2","2","17","0","0","0","1","17","2","2","17","2","1","2","17","24","2","1","1","2","2","2","2","0","0","0","17","03/21/18 15:27:17","Executes Python code","yes","","lineup_videoFB_W.osexp","C:/Users/standalone/Desktop/FB 21 Mar 2.35","no","mono","no","24","no","black","no","yes","male","768","Not sure","no","no","no","legacy","5","0","C:/Users/standalone/Desktop/FB 21 Mar 2.35/subject-105.csv","[member6]","2","6","5","4","1","3","xpyriment","Jazzy James","3.1.6","0","2","legacy","1024","2","48000","-16","experiment","105","odd","legacy","[target1]","present","absent","2551","280785","271545","2551","280785","305060","333984","271545","NA","280651","300115","NA","2481","2545","280782","331961","NA","208087","281788","280841","280816","280841","326770","333984","254221","280782","280784","NA","274709","211221","NA","2483","2481","2482","326770","lineup1","no","6","no","1366"
"","white","no","xpyriment","legacy","legacy","0","no","relative","1","1","2","1","1","17","17","2","2","2","17","0","0","0","1","17","2","2","17","2","1","2","17","24","2","1","1","2","2","2","2","0","0","0","17","03/21/18 15:27:17","Executes Python code","yes","","lineup_videoFB_W.osexp","C:/Users/standalone/Desktop/FB 21 Mar 2.35","no","mono","no","24","no","black","no","yes","male","768","Not sure","Yes","One","No","legacy","5","0","C:/Users/standalone/Desktop/FB 21 Mar 2.35/subject-105.csv","[member6]","2","6","5","4","1","3","xpyriment","Jazzy James","3.1.6","0","2","legacy","1024","2","48000","-16","experiment","105","odd","legacy","[target1]","present","absent","2551","280785","348278","2551","280785","305060","333984","337390","348278","358194","300115","NA","2481","2545","280782","331961","NA","208087","281788","280841","280816","280841","326770","358194","334022","280782","280784","337390","353188","211221","NA","2483","2481","2482","326770","lineup1","no","6","no","1366"
"","white","no","xpyriment","legacy","legacy","0","no","relative","1","1","2","1","1","17","17","2","2","2","17","0","0","0","1","17","2","2","17","2","1","2","17","24","2","1","1","2","2","2","2","0","0","0","17","03/21/18 15:27:17","Executes Python code","yes","","lineup_videoFB_W.osexp","C:/Users/standalone/Desktop/FB 21 Mar 2.35","no","mono","no","24","no","black","no","yes","male","768","Not sure","Yes","One","No","legacy","5","0","C:/Users/standalone/Desktop/FB 21 Mar 2.35/subject-105.csv","[member6]","2","6","5","4","1","3","xpyriment","Jazzy James","3.1.6","0","2","legacy","1024","2","48000","-16","experiment","105","odd","legacy","[target1]","present","absent","2551","280785","348278","2551","280785","305060","333984","337390","348278","358194","300115","358253","2481","2545","280782","331961","NA","208087","281788","280841","280816","280841","326770","359392","334022","280782","280784","337390","353188","211221","NA","2483","2481","2482","326770","lineup1","no","6","no","1366"
