"_prepare","background","bidi","canvas_backend","clock_backend","color_backend","compensation","confidence_immediate","coordinates","count_TA_sequence_setting","count_TP_sequence_setting","count_admin_check","count_check_TA","count_check_TP","count_check_confidence_imm","count_check_identification","count_check_made_identification","count_check_multiple_identification","count_check_proceeding_identification","count_check_time_of_exposure","count_confidence_imm","count_end_of_experiment","count_experiment","count_gender_lineup_loop","count_gender_randomization_sequence","count_identification_task","count_instructions_after_multiple","count_instructions_after_proceed_identification","count_instructions_before_view","count_lineup_loop","count_lineup_procedure_loop","count_lineup_procedure_sequence","count_lineup_sequence","count_logger","count_made_identification","count_member_randomization_loop","count_member_randomization_sequence","count_multiple_identification","count_proceed_identification","count_repeat_lineup_sequence_identification","count_repeat_lineup_sequence_multiple","count_target_setting","count_target_setting_loop","count_target_setting_sequence","count_time_of_exposure","count_video","datetime","description","disable_garbage_collection","empty_column","experiment_file","experiment_path","font_bold","font_family","font_italic","font_size","font_underline","foreground","form_clicks","fullscreen","gender","height","identification","identification_made","identification_multiple","identification_proceed","keyboard_backend","lecture_time","live_row","live_row_target_setting_loop","logfile","member","member1","member2","member3","member4","member5","member6","mouse_backend","opensesame_codename","opensesame_version","repeat_cycle","round_decimals","sampler_backend","sound_buf_size","sound_channels","sound_freq","sound_sample_size","start","subject_nr","subject_parity","synth_backend","target","target1","target2","time_TA_sequence_setting","time_TP_sequence_setting","time_admin_check","time_check_TA","time_check_TP","time_check_confidence_imm","time_check_identification","time_check_made_identification","time_check_multiple_identification","time_check_proceeding_identification","time_check_time_of_exposure","time_confidence_imm","time_end_of_experiment","time_experiment","time_gender_lineup_loop","time_gender_randomization_sequence","time_identification_task","time_instructions_after_multiple","time_instructions_after_proceed_identification","time_instructions_before_view","time_lineup_loop","time_lineup_procedure_loop","time_lineup_procedure_sequence","time_lineup_sequence","time_logger","time_made_identification","time_member_randomization_loop","time_member_randomization_sequence","time_multiple_identification","time_proceed_identification","time_repeat_lineup_sequence_identification","time_repeat_lineup_sequence_multiple","time_target_setting","time_target_setting_loop","time_target_setting_sequence","time_time_of_exposure","time_video","title","transparent_variables","trial","uniform_coordinates","width"
"","white","no","xpyriment","legacy","legacy","0","NA","relative","NA","NA","NA","NA","NA","NA","NA","NA","NA","NA","0","NA","0","0","0","NA","NA","NA","NA","NA","NA","NA","NA","NA","1","NA","NA","NA","NA","NA","NA","NA","0","0","0","0","NA","12/02/17 14:01:59","Executes Python code","yes","","lineup_videoVIPER.osexp","C:/Users/standalone/Desktop/1.25 - Viper","no","mono","no","24","no","black","no","yes","NA","768","NA","NA","NA","NA","legacy","no","0","0","C:/Users/standalone/Desktop/1.25 - Viper/subject-45.csv","NA","NA","NA","NA","NA","NA","NA","xpyriment","Jazzy James","3.1.6","0","2","legacy","1024","2","48000","-16","experiment","45","odd","legacy","NA","absent","present","NA","NA","NA","NA","NA","NA","NA","NA","NA","NA","NA","NA","NA","2589","NA","NA","NA","NA","NA","NA","NA","NA","NA","NA","2592","NA","NA","NA","NA","NA","NA","NA","2592","2590","2592","NA","NA","lineup1","no","NA","no","1366"
"","white","no","xpyriment","legacy","legacy","0","NA","relative","0","0","NA","0","0","NA","NA","NA","NA","NA","0","NA","0","0","0","0","NA","NA","NA","NA","NA","0","NA","NA","2","NA","0","0","NA","NA","NA","NA","0","0","0","0","NA","12/02/17 14:01:59","Executes Python code","yes","","lineup_videoVIPER.osexp","C:/Users/standalone/Desktop/1.25 - Viper","no","mono","no","24","no","black","no","yes","female","768","NA","NA","NA","NA","legacy","no","0","0","C:/Users/standalone/Desktop/1.25 - Viper/subject-45.csv","NA","5","4","1","3","2","6","xpyriment","Jazzy James","3.1.6","0","2","legacy","1024","2","48000","-16","experiment","45","odd","legacy","[target2]","absent","present","NA","2669","NA","NA","2669","NA","NA","NA","NA","NA","NA","NA","NA","2589","2663","2667","NA","NA","NA","NA","NA","NA","NA","NA","2669","NA","2667","2669","NA","NA","NA","NA","2592","2590","2592","NA","NA","lineup1","no","NA","no","1366"
"","white","no","xpyriment","legacy","legacy","0","no","relative","0","0","0","0","0","0","0","0","0","0","0","0","0","0","0","0","0","0","0","0","0","0","0","0","4","0","0","0","0","0","0","0","0","0","0","0","0","12/02/17 14:01:59","Executes Python code","yes","","lineup_videoVIPER.osexp","C:/Users/standalone/Desktop/1.25 - Viper","no","mono","no","24","no","black","no","yes","female","768","No","no","no","no","legacy","no","0","0","C:/Users/standalone/Desktop/1.25 - Viper/subject-45.csv","[member1]","5","4","1","3","2","6","xpyriment","Jazzy James","3.1.6","0","2","legacy","1024","2","48000","-16","experiment","45","odd","legacy","[target2]","absent","present","NA","2669","NA","NA","2669","NA","61560","NA","NA","NA","NA","NA","NA","2589","2663","2667","56460","NA","NA","3040","2736","2708","2736","3040","61560","NA","2667","2669","NA","NA","NA","NA","2592","2590","2592","NA","47130","lineup1","no","1","no","1366"
"","white","no","xpyriment","legacy","legacy","0","no","relative","0","0","0","0","0","1","1","0","0","0","0","1","0","0","0","0","1","0","0","1","0","0","0","1","5","0","0","0","0","0","0","0","0","0","0","0","1","12/02/17 14:01:59","Executes Python code","yes","","lineup_videoVIPER.osexp","C:/Users/standalone/Desktop/1.25 - Viper","no","mono","no","24","no","black","no","yes","female","768","Not sure","no","no","no","legacy","no","1","0","C:/Users/standalone/Desktop/1.25 - Viper/subject-45.csv","[member2]","5","4","1","3","2","6","xpyriment","Jazzy James","3.1.6","0","2","legacy","1024","2","48000","-16","experiment","45","odd","legacy","[target2]","absent","present","NA","2669","NA","NA","2669","NA","66376","NA","NA","NA","NA","NA","NA","2589","2663","2667","64190","NA","NA","3040","2736","2708","2736","61793","66376","NA","2667","2669","NA","NA","NA","NA","2592","2590","2592","NA","61793","lineup1","no","2","no","1366"
"","white","no","xpyriment","legacy","legacy","0","no","relative","0","0","0","0","0","2","2","0","0","0","0","2","0","0","0","0","2","0","0","2","0","0","0","2","6","0","0","0","0","0","0","0","0","0","0","0","2","12/02/17 14:01:59","Executes Python code","yes","","lineup_videoVIPER.osexp","C:/Users/standalone/Desktop/1.25 - Viper","no","mono","no","24","no","black","no","yes","female","768","No","no","no","no","legacy","no","2","0","C:/Users/standalone/Desktop/1.25 - Viper/subject-45.csv","[member3]","5","4","1","3","2","6","xpyriment","Jazzy James","3.1.6","0","2","legacy","1024","2","48000","-16","experiment","45","odd","legacy","[target2]","absent","present","NA","2669","NA","NA","2669","NA","70309","NA","NA","NA","NA","NA","NA","2589","2663","2667","67981","NA","NA","3040","2736","2708","2736","66605","70309","NA","2667","2669","NA","NA","NA","NA","2592","2590","2592","NA","66605","lineup1","no","3","no","1366"
"","white","no","xpyriment","legacy","legacy","0","no","relative","0","0","0","0","0","3","3","0","0","0","0","3","0","0","0","0","3","0","0","3","0","0","0","3","7","0","0","0","0","0","0","0","0","0","0","0","3","12/02/17 14:01:59","Executes Python code","yes","","lineup_videoVIPER.osexp","C:/Users/standalone/Desktop/1.25 - Viper","no","mono","no","24","no","black","no","yes","female","768","Not sure","no","no","no","legacy","no","3","0","C:/Users/standalone/Desktop/1.25 - Viper/subject-45.csv","[member4]","5","4","1","3","2","6","xpyriment","Jazzy James","3.1.6","0","2","legacy","1024","2","48000","-16","experiment","45","odd","legacy","[target2]","absent","present","NA","2669","NA","NA","2669","NA","90424","NA","NA","NA","NA","NA","NA","2589","2663","2667","77115","NA","NA","3040","2736","2708","2736","70529","90424","NA","2667","2669","NA","NA","NA","NA","2592","2590","2592","NA","70529","lineup1","no","4","no","1366"
"","white","no","xpyriment","legacy","legacy","0","no","relative","0","0","0","0","0","4","4","0","0","0","0","4","0","0","0","0","4","0","0","4","0","0","0","4","8","0","0","0","0","0","0","0","0","0","0","0","4","12/02/17 14:01:59","Executes Python code","yes","","lineup_videoVIPER.osexp","C:/Users/standalone/Desktop/1.25 - Viper","no","mono","no","24","no","black","no","yes","female","768","No","no","no","no","legacy","no","4","0","C:/Users/standalone/Desktop/1.25 - Viper/subject-45.csv","[member5]","5","4","1","3","2","6","xpyriment","Jazzy James","3.1.6","0","2","legacy","1024","2","48000","-16","experiment","45","odd","legacy","[target2]","absent","present","NA","2669","NA","NA","2669","NA","94921","NA","NA","NA","NA","NA","NA","2589","2663","2667","92934","NA","NA","3040","2736","2708","2736","90656","94921","NA","2667","2669","NA","NA","NA","NA","2592","2590","2592","NA","90656","lineup1","no","5","no","1366"
"","white","no","xpyriment","legacy","legacy","0","no","relative","0","0","0","0","0","5","5","0","0","0","0","5","0","0","0","0","5","0","0","5","0","0","0","5","9","0","0","0","0","0","0","0","0","0","0","0","5","12/02/17 14:01:59","Executes Python code","yes","","lineup_videoVIPER.osexp","C:/Users/standalone/Desktop/1.25 - Viper","no","mono","no","24","no","black","no","yes","female","768","No","no","no","no","legacy","no","5","0","C:/Users/standalone/Desktop/1.25 - Viper/subject-45.csv","[member6]","5","4","1","3","2","6","xpyriment","Jazzy James","3.1.6","0","2","legacy","1024","2","48000","-16","experiment","45","odd","legacy","[target2]","absent","present","NA","2669","NA","NA","2669","NA","98461","NA","NA","NA","NA","NA","NA","2589","2663","2667","96323","NA","NA","3040","2736","2708","2736","95145","98461","NA","2667","2669","NA","NA","NA","NA","2592","2590","2592","NA","95145","lineup1","no","6","no","1366"
"","white","no","xpyriment","legacy","legacy","0","no","relative","0","0","1","0","0","6","6","1","1","1","0","6","0","0","0","0","6","1","1","6","1","0","1","6","11","1","0","0","1","1","1","1","0","0","0","0","6","12/02/17 14:01:59","Executes Python code","yes","","lineup_videoVIPER.osexp","C:/Users/standalone/Desktop/1.25 - Viper","no","mono","no","24","no","black","no","yes","female","768","No","no","no","no","legacy","no","0","0","C:/Users/standalone/Desktop/1.25 - Viper/subject-45.csv","[member1]","5","4","1","3","2","6","xpyriment","Jazzy James","3.1.6","0","2","legacy","1024","2","48000","-16","experiment","45","odd","legacy","[target2]","absent","present","NA","2669","103765","NA","2669","NA","143508","103764","NA","130441","NA","NA","NA","2589","2663","2667","141894","NA","130441","137775","137593","2708","137593","137775","143508","98525","2667","2669","NA","114280","137567","NA","2592","2590","2592","NA","140968","lineup1","no","1","no","1366"
"","white","no","xpyriment","legacy","legacy","0","no","relative","0","0","1","0","0","7","7","1","1","1","0","7","0","0","0","0","7","1","1","7","1","0","1","7","12","1","0","0","1","1","1","1","0","0","0","0","7","12/02/17 14:01:59","Executes Python code","yes","","lineup_videoVIPER.osexp","C:/Users/standalone/Desktop/1.25 - Viper","no","mono","no","24","no","black","no","yes","female","768","No","no","no","no","legacy","no","1","0","C:/Users/standalone/Desktop/1.25 - Viper/subject-45.csv","[member2]","5","4","1","3","2","6","xpyriment","Jazzy James","3.1.6","0","2","legacy","1024","2","48000","-16","experiment","45","odd","legacy","[target2]","absent","present","NA","2669","103765","NA","2669","NA","147132","103764","NA","130441","NA","NA","NA","2589","2663","2667","145527","NA","130441","137775","137593","2708","137593","143725","147132","98525","2667","2669","NA","114280","137567","NA","2592","2590","2592","NA","143725","lineup1","no","2","no","1366"
"","white","no","xpyriment","legacy","legacy","0","no","relative","0","0","1","0","0","8","8","1","1","1","0","8","0","0","0","0","8","1","1","8","1","0","1","8","13","1","0","0","1","1","1","1","0","0","0","0","8","12/02/17 14:01:59","Executes Python code","yes","","lineup_videoVIPER.osexp","C:/Users/standalone/Desktop/1.25 - Viper","no","mono","no","24","no","black","no","yes","female","768","No","no","no","no","legacy","no","2","0","C:/Users/standalone/Desktop/1.25 - Viper/subject-45.csv","[member3]","5","4","1","3","2","6","xpyriment","Jazzy James","3.1.6","0","2","legacy","1024","2","48000","-16","experiment","45","odd","legacy","[target2]","absent","present","NA","2669","103765","NA","2669","NA","149945","103764","NA","130441","NA","NA","NA","2589","2663","2667","148155","NA","130441","137775","137593","2708","137593","147355","149945","98525","2667","2669","NA","114280","137567","NA","2592","2590","2592","NA","147355","lineup1","no","3","no","1366"
"","white","no","xpyriment","legacy","legacy","0","no","relative","0","0","1","0","0","9","9","1","1","1","0","9","0","0","0","0","9","1","1","9","1","0","1","9","14","1","0","0","1","1","1","1","0","0","0","0","9","12/02/17 14:01:59","Executes Python code","yes","","lineup_videoVIPER.osexp","C:/Users/standalone/Desktop/1.25 - Viper","no","mono","no","24","no","black","no","yes","female","768","No","no","no","no","legacy","no","3","0","C:/Users/standalone/Desktop/1.25 - Viper/subject-45.csv","[member4]","5","4","1","3","2","6","xpyriment","Jazzy James","3.1.6","0","2","legacy","1024","2","48000","-16","experiment","45","odd","legacy","[target2]","absent","present","NA","2669","103765","NA","2669","NA","153493","103764","NA","130441","NA","NA","NA","2589","2663","2667","151349","NA","130441","137775","137593","2708","137593","150168","153493","98525","2667","2669","NA","114280","137567","NA","2592","2590","2592","NA","150168","lineup1","no","4","no","1366"
"","white","no","xpyriment","legacy","legacy","0","no","relative","0","0","1","0","0","10","10","1","1","1","0","10","0","0","0","0","10","1","1","10","1","0","1","10","15","1","0","0","1","1","1","1","0","0","0","0","10","12/02/17 14:01:59","Executes Python code","yes","","lineup_videoVIPER.osexp","C:/Users/standalone/Desktop/1.25 - Viper","no","mono","no","24","no","black","no","yes","female","768","No","no","no","no","legacy","no","4","0","C:/Users/standalone/Desktop/1.25 - Viper/subject-45.csv","[member5]","5","4","1","3","2","6","xpyriment","Jazzy James","3.1.6","0","2","legacy","1024","2","48000","-16","experiment","45","odd","legacy","[target2]","absent","present","NA","2669","103765","NA","2669","NA","157735","103764","NA","130441","NA","NA","NA","2589","2663","2667","155413","NA","130441","137775","137593","2708","137593","153736","157735","98525","2667","2669","NA","114280","137567","NA","2592","2590","2592","NA","153736","lineup1","no","5","no","1366"
"","white","no","xpyriment","legacy","legacy","0","no","relative","0","0","1","0","0","11","11","1","1","1","0","11","0","0","0","0","11","1","1","11","1","0","1","11","16","1","0","0","1","1","1","1","0","0","0","0","11","12/02/17 14:01:59","Executes Python code","yes","","lineup_videoVIPER.osexp","C:/Users/standalone/Desktop/1.25 - Viper","no","mono","no","24","no","black","no","yes","female","768","No","no","no","no","legacy","no","5","0","C:/Users/standalone/Desktop/1.25 - Viper/subject-45.csv","[member6]","5","4","1","3","2","6","xpyriment","Jazzy James","3.1.6","0","2","legacy","1024","2","48000","-16","experiment","45","odd","legacy","[target2]","absent","present","NA","2669","103765","NA","2669","NA","160895","103764","NA","130441","NA","NA","NA","2589","2663","2667","158755","NA","130441","137775","137593","2708","137593","157960","160895","98525","2667","2669","NA","114280","137567","NA","2592","2590","2592","NA","157960","lineup1","no","6","no","1366"
"","white","no","xpyriment","legacy","legacy","0","no","relative","0","0","2","0","0","12","12","2","2","2","0","12","0","0","0","0","12","2","2","12","2","0","2","12","18","2","0","0","2","2","2","2","0","0","0","0","12","12/02/17 14:01:59","Executes Python code","yes","","lineup_videoVIPER.osexp","C:/Users/standalone/Desktop/1.25 - Viper","no","mono","no","24","no","black","no","yes","female","768","No","no","no","no","legacy","no","0","0","C:/Users/standalone/Desktop/1.25 - Viper/subject-45.csv","[member1]","5","4","1","3","2","6","xpyriment","Jazzy James","3.1.6","0","2","legacy","1024","2","48000","-16","experiment","45","odd","legacy","[target2]","absent","present","NA","2669","164817","NA","2669","NA","183091","164817","NA","177367","NA","NA","NA","2589","2663","2667","181123","NA","177367","179244","179067","2708","179067","179244","183091","160940","2667","2669","NA","169436","179041","NA","2592","2590","2592","NA","180358","lineup1","no","1","no","1366"
"","white","no","xpyriment","legacy","legacy","0","70","relative","0","0","2","0","0","13","13","2","2","2","0","13","0","0","0","0","13","2","2","13","2","0","2","13","19","2","0","0","2","2","2","2","0","0","0","0","13","12/02/17 14:01:59","Executes Python code","yes","","lineup_videoVIPER.osexp","C:/Users/standalone/Desktop/1.25 - Viper","no","mono","no","24","no","black","no","yes","female","768","Yes","no","no","no","legacy","no","1","0","C:/Users/standalone/Desktop/1.25 - Viper/subject-45.csv","[member2]","5","4","1","3","2","6","xpyriment","Jazzy James","3.1.6","0","2","legacy","1024","2","48000","-16","experiment","45","odd","legacy","[target2]","absent","present","NA","2669","164817","NA","2669","191769","186317","164817","NA","177367","NA","186317","NA","2589","2663","2667","184350","NA","177367","179244","179067","2708","179067","183328","191769","160940","2667","2669","NA","169436","179041","NA","2592","2590","2592","NA","183328","lineup1","no","2","no","1366"
"","white","no","xpyriment","legacy","legacy","0","no","relative","0","0","2","0","0","14","14","2","2","2","0","14","0","0","0","0","14","2","2","14","2","0","2","14","20","2","0","0","2","2","2","2","0","0","0","0","14","12/02/17 14:01:59","Executes Python code","yes","","lineup_videoVIPER.osexp","C:/Users/standalone/Desktop/1.25 - Viper","no","mono","no","24","no","black","no","yes","female","768","No","no","no","no","legacy","no","2","0","C:/Users/standalone/Desktop/1.25 - Viper/subject-45.csv","[member3]","5","4","1","3","2","6","xpyriment","Jazzy James","3.1.6","0","2","legacy","1024","2","48000","-16","experiment","45","odd","legacy","[target2]","absent","present","NA","2669","164817","NA","2669","191769","196267","164817","NA","177367","NA","186317","NA","2589","2663","2667","192861","NA","177367","179244","179067","2708","179067","192011","196267","160940","2667","2669","NA","169436","179041","NA","2592","2590","2592","NA","192011","lineup1","no","3","no","1366"
"","white","no","xpyriment","legacy","legacy","0","no","relative","0","0","2","0","0","15","15","2","2","2","0","15","0","0","0","0","15","2","2","15","2","0","2","15","21","2","0","0","2","2","2","2","0","0","0","0","15","12/02/17 14:01:59","Executes Python code","yes","","lineup_videoVIPER.osexp","C:/Users/standalone/Desktop/1.25 - Viper","no","mono","no","24","no","black","no","yes","female","768","No","no","no","no","legacy","no","3","0","C:/Users/standalone/Desktop/1.25 - Viper/subject-45.csv","[member4]","5","4","1","3","2","6","xpyriment","Jazzy James","3.1.6","0","2","legacy","1024","2","48000","-16","experiment","45","odd","legacy","[target2]","absent","present","NA","2669","164817","NA","2669","191769","198904","164817","NA","177367","NA","186317","NA","2589","2663","2667","197294","NA","177367","179244","179067","2708","179067","196500","198904","160940","2667","2669","NA","169436","179041","NA","2592","2590","2592","NA","196500","lineup1","no","4","no","1366"
"","white","no","xpyriment","legacy","legacy","0","no","relative","0","0","2","0","0","16","16","2","2","2","0","16","0","0","0","0","16","2","2","16","2","0","2","16","22","2","0","0","2","2","2","2","0","0","0","0","16","12/02/17 14:01:59","Executes Python code","yes","","lineup_videoVIPER.osexp","C:/Users/standalone/Desktop/1.25 - Viper","no","mono","no","24","no","black","no","yes","female","768","No","no","no","no","legacy","no","4","0","C:/Users/standalone/Desktop/1.25 - Viper/subject-45.csv","[member5]","5","4","1","3","2","6","xpyriment","Jazzy James","3.1.6","0","2","legacy","1024","2","48000","-16","experiment","45","odd","legacy","[target2]","absent","present","NA","2669","164817","NA","2669","191769","201903","164817","NA","177367","NA","186317","NA","2589","2663","2667","199760","NA","177367","179244","179067","2708","179067","199145","201903","160940","2667","2669","NA","169436","179041","NA","2592","2590","2592","NA","199145","lineup1","no","5","no","1366"
"","white","no","xpyriment","legacy","legacy","0","no","relative","0","0","2","0","0","17","17","2","2","2","0","17","0","0","0","0","17","2","2","17","2","0","2","17","23","2","0","0","2","2","2","2","0","0","0","0","17","12/02/17 14:01:59","Executes Python code","yes","","lineup_videoVIPER.osexp","C:/Users/standalone/Desktop/1.25 - Viper","no","mono","no","24","no","black","no","yes","female","768","No","no","no","no","legacy","no","5","0","C:/Users/standalone/Desktop/1.25 - Viper/subject-45.csv","[member6]","5","4","1","3","2","6","xpyriment","Jazzy James","3.1.6","0","2","legacy","1024","2","48000","-16","experiment","45","odd","legacy","[target2]","absent","present","NA","2669","164817","NA","2669","191769","204586","164817","NA","177367","NA","186317","NA","2589","2663","2667","202796","NA","177367","179244","179067","2708","179067","202146","204586","160940","2667","2669","NA","169436","179041","NA","2592","2590","2592","NA","202146","lineup1","no","6","no","1366"
"","white","no","xpyriment","legacy","legacy","0","no","relative","0","0","2","0","0","17","17","2","2","2","0","17","0","0","0","0","17","2","2","17","2","0","2","17","23","2","0","0","2","2","2","2","0","0","0","0","17","12/02/17 14:01:59","Executes Python code","yes","","lineup_videoVIPER.osexp","C:/Users/standalone/Desktop/1.25 - Viper","no","mono","no","24","no","black","no","yes","female","768","No","Yes","One","No","legacy","no","5","0","C:/Users/standalone/Desktop/1.25 - Viper/subject-45.csv","[member6]","5","4","1","3","2","6","xpyriment","Jazzy James","3.1.6","0","2","legacy","1024","2","48000","-16","experiment","45","odd","legacy","[target2]","absent","present","NA","2669","211253","NA","2669","191769","204586","207525","211253","220827","NA","186317","NA","2589","2663","2667","202796","NA","177367","179244","179067","2708","179067","202146","220827","204632","2667","2669","207525","216425","179041","NA","2592","2590","2592","NA","202146","lineup1","no","6","no","1366"
"","white","no","xpyriment","legacy","legacy","0","no","relative","0","0","2","0","0","17","17","2","2","2","0","17","0","0","0","0","17","2","2","17","2","0","2","17","23","2","0","0","2","2","2","2","0","0","0","0","17","12/02/17 14:01:59","Executes Python code","yes","","lineup_videoVIPER.osexp","C:/Users/standalone/Desktop/1.25 - Viper","no","mono","no","24","no","black","no","yes","female","768","No","Yes","One","No","legacy","no","5","0","C:/Users/standalone/Desktop/1.25 - Viper/subject-45.csv","[member6]","5","4","1","3","2","6","xpyriment","Jazzy James","3.1.6","0","2","legacy","1024","2","48000","-16","experiment","45","odd","legacy","[target2]","absent","present","NA","2669","211253","NA","2669","191769","204586","207525","211253","220827","NA","186317","NA","2589","2663","2667","202796","NA","177367","179244","179067","2708","179067","202146","220891","204632","2667","2669","207525","216425","179041","NA","2592","2590","2592","NA","202146","lineup1","no","6","no","1366"
"","white","no","xpyriment","legacy","legacy","0","no","relative","0","0","2","0","0","17","17","2","2","2","0","17","0","0","0","0","17","2","2","17","2","0","2","17","23","2","0","0","2","2","2","2","0","0","0","0","17","12/02/17 14:01:59","Executes Python code","yes","","lineup_videoVIPER.osexp","C:/Users/standalone/Desktop/1.25 - Viper","no","mono","no","24","no","black","no","yes","female","768","No","Yes","One","No","legacy","no","5","0","C:/Users/standalone/Desktop/1.25 - Viper/subject-45.csv","[member6]","5","4","1","3","2","6","xpyriment","Jazzy James","3.1.6","0","2","legacy","1024","2","48000","-16","experiment","45","odd","legacy","[target2]","absent","present","NA","2669","211253","NA","2669","191769","204586","207525","211253","220827","NA","186317","NA","2589","2663","2667","202796","NA","177367","179244","179067","2708","179067","202146","220932","204632","2667","2669","207525","216425","179041","NA","2592","2590","2592","NA","202146","lineup1","no","6","no","1366"
"","white","no","xpyriment","legacy","legacy","0","no","relative","1","1","2","1","1","17","17","2","2","2","0","17","0","0","0","1","17","2","2","17","2","1","2","17","24","2","1","1","2","2","2","2","0","0","0","0","17","12/02/17 14:01:59","Executes Python code","yes","","lineup_videoVIPER.osexp","C:/Users/standalone/Desktop/1.25 - Viper","no","mono","no","24","no","black","no","yes","male","768","No","Yes","One","No","legacy","no","0","0","C:/Users/standalone/Desktop/1.25 - Viper/subject-45.csv","[member6]","3","2","5","7","1","4","xpyriment","Jazzy James","3.1.6","0","2","legacy","1024","2","48000","-16","experiment","45","odd","legacy","[target1]","absent","present","221008","2669","211253","221008","2669","191769","204586","207525","211253","220827","NA","186317","NA","2589","2663","221005","202796","NA","177367","179244","179067","2708","179067","202146","221008","204632","221005","221007","207525","216425","179041","NA","2592","2590","2592","NA","202146","lineup1","no","6","no","1366"
"","white","no","xpyriment","legacy","legacy","0","no","relative","1","1","3","1","1","18","18","3","3","3","0","18","0","0","0","1","18","3","3","18","3","1","3","18","26","3","1","1","3","3","3","3","0","0","0","0","18","12/02/17 14:01:59","Executes Python code","yes","","lineup_videoVIPER.osexp","C:/Users/standalone/Desktop/1.25 - Viper","no","mono","no","24","no","black","no","yes","male","768","No","no","no","no","legacy","no","0","0","C:/Users/standalone/Desktop/1.25 - Viper/subject-45.csv","[member1]","3","2","5","7","1","4","xpyriment","Jazzy James","3.1.6","0","2","legacy","1024","2","48000","-16","experiment","45","odd","legacy","[target1]","absent","present","221008","2669","211253","221008","2669","191769","227378","207525","211253","220827","NA","186317","NA","2589","2663","221005","225591","NA","177367","221256","221074","221049","221074","221256","227378","204632","221005","221007","207525","216425","179041","NA","2592","2590","2592","NA","224446","lineup1","no","1","no","1366"
"","white","no","xpyriment","legacy","legacy","0","no","relative","1","1","3","1","1","19","19","3","3","3","0","19","0","0","0","1","19","3","3","19","3","1","3","19","27","3","1","1","3","3","3","3","0","0","0","0","19","12/02/17 14:01:59","Executes Python code","yes","","lineup_videoVIPER.osexp","C:/Users/standalone/Desktop/1.25 - Viper","no","mono","no","24","no","black","no","yes","male","768","No","no","no","no","legacy","no","1","0","C:/Users/standalone/Desktop/1.25 - Viper/subject-45.csv","[member2]","3","2","5","7","1","4","xpyriment","Jazzy James","3.1.6","0","2","legacy","1024","2","48000","-16","experiment","45","odd","legacy","[target1]","absent","present","221008","2669","211253","221008","2669","191769","230417","207525","211253","220827","NA","186317","NA","2589","2663","221005","228270","NA","177367","221256","221074","221049","221074","227628","230417","204632","221005","221007","207525","216425","179041","NA","2592","2590","2592","NA","227628","lineup1","no","2","no","1366"
"","white","no","xpyriment","legacy","legacy","0","no","relative","1","1","3","1","1","20","20","3","3","3","0","20","0","0","0","1","20","3","3","20","3","1","3","20","28","3","1","1","3","3","3","3","0","0","0","0","20","12/02/17 14:01:59","Executes Python code","yes","","lineup_videoVIPER.osexp","C:/Users/standalone/Desktop/1.25 - Viper","no","mono","no","24","no","black","no","yes","male","768","Not sure","no","no","no","legacy","no","2","0","C:/Users/standalone/Desktop/1.25 - Viper/subject-45.csv","[member3]","3","2","5","7","1","4","xpyriment","Jazzy James","3.1.6","0","2","legacy","1024","2","48000","-16","experiment","45","odd","legacy","[target1]","absent","present","221008","2669","211253","221008","2669","191769","234150","207525","211253","220827","NA","186317","NA","2589","2663","221005","232359","NA","177367","221256","221074","221049","221074","230639","234150","204632","221005","221007","207525","216425","179041","NA","2592","2590","2592","NA","230639","lineup1","no","3","no","1366"
"","white","no","xpyriment","legacy","legacy","0","no","relative","1","1","3","1","1","21","21","3","3","3","0","21","0","0","0","1","21","3","3","21","3","1","3","21","29","3","1","1","3","3","3","3","0","0","0","0","21","12/02/17 14:01:59","Executes Python code","yes","","lineup_videoVIPER.osexp","C:/Users/standalone/Desktop/1.25 - Viper","no","mono","no","24","no","black","no","yes","male","768","Not sure","no","no","no","legacy","no","3","0","C:/Users/standalone/Desktop/1.25 - Viper/subject-45.csv","[member4]","3","2","5","7","1","4","xpyriment","Jazzy James","3.1.6","0","2","legacy","1024","2","48000","-16","experiment","45","odd","legacy","[target1]","absent","present","221008","2669","211253","221008","2669","191769","237558","207525","211253","220827","NA","186317","NA","2589","2663","221005","236139","NA","177367","221256","221074","221049","221074","234380","237558","204632","221005","221007","207525","216425","179041","NA","2592","2590","2592","NA","234380","lineup1","no","4","no","1366"
"","white","no","xpyriment","legacy","legacy","0","no","relative","1","1","3","1","1","22","22","3","3","3","0","22","0","0","0","1","22","3","3","22","3","1","3","22","30","3","1","1","3","3","3","3","0","0","0","0","22","12/02/17 14:01:59","Executes Python code","yes","","lineup_videoVIPER.osexp","C:/Users/standalone/Desktop/1.25 - Viper","no","mono","no","24","no","black","no","yes","male","768","No","no","no","no","legacy","no","4","0","C:/Users/standalone/Desktop/1.25 - Viper/subject-45.csv","[member5]","3","2","5","7","1","4","xpyriment","Jazzy James","3.1.6","0","2","legacy","1024","2","48000","-16","experiment","45","odd","legacy","[target1]","absent","present","221008","2669","211253","221008","2669","191769","240235","207525","211253","220827","NA","186317","NA","2589","2663","221005","238455","NA","177367","221256","221074","221049","221074","237777","240235","204632","221005","221007","207525","216425","179041","NA","2592","2590","2592","NA","237777","lineup1","no","5","no","1366"
"","white","no","xpyriment","legacy","legacy","0","no","relative","1","1","3","1","1","23","23","3","3","3","0","23","0","0","0","1","23","3","3","23","3","1","3","23","31","3","1","1","3","3","3","3","0","0","0","0","23","12/02/17 14:01:59","Executes Python code","yes","","lineup_videoVIPER.osexp","C:/Users/standalone/Desktop/1.25 - Viper","no","mono","no","24","no","black","no","yes","male","768","No","no","no","no","legacy","no","5","0","C:/Users/standalone/Desktop/1.25 - Viper/subject-45.csv","[member6]","3","2","5","7","1","4","xpyriment","Jazzy James","3.1.6","0","2","legacy","1024","2","48000","-16","experiment","45","odd","legacy","[target1]","absent","present","221008","2669","211253","221008","2669","191769","243430","207525","211253","220827","NA","186317","NA","2589","2663","221005","241281","NA","177367","221256","221074","221049","221074","240463","243430","204632","221005","221007","207525","216425","179041","NA","2592","2590","2592","NA","240463","lineup1","no","6","no","1366"
"","white","no","xpyriment","legacy","legacy","0","no","relative","1","1","4","1","1","24","24","4","4","4","0","24","0","0","0","1","24","4","4","24","4","1","4","24","33","4","1","1","4","4","4","4","0","0","0","0","24","12/02/17 14:01:59","Executes Python code","yes","","lineup_videoVIPER.osexp","C:/Users/standalone/Desktop/1.25 - Viper","no","mono","no","24","no","black","no","yes","male","768","No","no","no","no","legacy","no","0","0","C:/Users/standalone/Desktop/1.25 - Viper/subject-45.csv","[member1]","3","2","5","7","1","4","xpyriment","Jazzy James","3.1.6","0","2","legacy","1024","2","48000","-16","experiment","45","odd","legacy","[target1]","absent","present","221008","2669","247507","221008","2669","191769","264983","247506","211253","259777","NA","186317","NA","2589","2663","221005","263556","NA","259778","261677","261490","221049","261490","261677","264983","243490","221005","221007","207525","248616","261464","NA","2592","2590","2592","NA","262628","lineup1","no","1","no","1366"
"","white","no","xpyriment","legacy","legacy","0","no","relative","1","1","4","1","1","25","25","4","4","4","0","25","0","0","0","1","25","4","4","25","4","1","4","25","34","4","1","1","4","4","4","4","0","0","0","0","25","12/02/17 14:01:59","Executes Python code","yes","","lineup_videoVIPER.osexp","C:/Users/standalone/Desktop/1.25 - Viper","no","mono","no","24","no","black","no","yes","male","768","No","no","no","no","legacy","no","1","0","C:/Users/standalone/Desktop/1.25 - Viper/subject-45.csv","[member2]","3","2","5","7","1","4","xpyriment","Jazzy James","3.1.6","0","2","legacy","1024","2","48000","-16","experiment","45","odd","legacy","[target1]","absent","present","221008","2669","247507","221008","2669","191769","267452","247506","211253","259777","NA","186317","NA","2589","2663","221005","265846","NA","259778","261677","261490","221049","261490","265214","267452","243490","221005","221007","207525","248616","261464","NA","2592","2590","2592","NA","265214","lineup1","no","2","no","1366"
"","white","no","xpyriment","legacy","legacy","0","70","relative","1","1","4","1","1","26","26","4","4","4","0","26","0","0","0","1","26","4","4","26","4","1","4","26","35","4","1","1","4","4","4","4","0","0","0","0","26","12/02/17 14:01:59","Executes Python code","yes","","lineup_videoVIPER.osexp","C:/Users/standalone/Desktop/1.25 - Viper","no","mono","no","24","no","black","no","yes","male","768","Yes","no","no","no","legacy","no","2","0","C:/Users/standalone/Desktop/1.25 - Viper/subject-45.csv","[member3]","3","2","5","7","1","4","xpyriment","Jazzy James","3.1.6","0","2","legacy","1024","2","48000","-16","experiment","45","odd","legacy","[target1]","absent","present","221008","2669","247507","221008","2669","281479","277210","247506","211253","259777","NA","277210","NA","2589","2663","221005","274807","NA","259778","261677","261490","221049","261490","267685","281479","243490","221005","221007","207525","248616","261464","NA","2592","2590","2592","NA","267686","lineup1","no","3","no","1366"
"","white","no","xpyriment","legacy","legacy","0","no","relative","1","1","4","1","1","27","27","4","4","4","0","27","0","0","0","1","27","4","4","27","4","1","4","27","36","4","1","1","4","4","4","4","0","0","0","0","27","12/02/17 14:01:59","Executes Python code","yes","","lineup_videoVIPER.osexp","C:/Users/standalone/Desktop/1.25 - Viper","no","mono","no","24","no","black","no","yes","male","768","No","no","no","no","legacy","no","3","0","C:/Users/standalone/Desktop/1.25 - Viper/subject-45.csv","[member4]","3","2","5","7","1","4","xpyriment","Jazzy James","3.1.6","0","2","legacy","1024","2","48000","-16","experiment","45","odd","legacy","[target1]","absent","present","221008","2669","247507","221008","2669","281479","285188","247506","211253","259777","NA","277210","NA","2589","2663","221005","283045","NA","259778","261677","261490","221049","261490","281706","285188","243490","221005","221007","207525","248616","261464","NA","2592","2590","2592","NA","281706","lineup1","no","4","no","1366"
"","white","no","xpyriment","legacy","legacy","0","no","relative","1","1","4","1","1","28","28","4","4","4","0","28","0","0","0","1","28","4","4","28","4","1","4","28","37","4","1","1","4","4","4","4","0","0","0","0","28","12/02/17 14:01:59","Executes Python code","yes","","lineup_videoVIPER.osexp","C:/Users/standalone/Desktop/1.25 - Viper","no","mono","no","24","no","black","no","yes","male","768","No","no","no","no","legacy","no","4","0","C:/Users/standalone/Desktop/1.25 - Viper/subject-45.csv","[member5]","3","2","5","7","1","4","xpyriment","Jazzy James","3.1.6","0","2","legacy","1024","2","48000","-16","experiment","45","odd","legacy","[target1]","absent","present","221008","2669","247507","221008","2669","281479","287533","247506","211253","259777","NA","277210","NA","2589","2663","221005","286110","NA","259778","261677","261490","221049","261490","285450","287533","243490","221005","221007","207525","248616","261464","NA","2592","2590","2592","NA","285450","lineup1","no","5","no","1366"
"","white","no","xpyriment","legacy","legacy","0","no","relative","1","1","4","1","1","29","29","4","4","4","0","29","0","0","0","1","29","4","4","29","4","1","4","29","38","4","1","1","4","4","4","4","0","0","0","0","29","12/02/17 14:01:59","Executes Python code","yes","","lineup_videoVIPER.osexp","C:/Users/standalone/Desktop/1.25 - Viper","no","mono","no","24","no","black","no","yes","male","768","No","no","no","no","legacy","no","5","0","C:/Users/standalone/Desktop/1.25 - Viper/subject-45.csv","[member6]","3","2","5","7","1","4","xpyriment","Jazzy James","3.1.6","0","2","legacy","1024","2","48000","-16","experiment","45","odd","legacy","[target1]","absent","present","221008","2669","247507","221008","2669","281479","289917","247506","211253","259777","NA","277210","NA","2589","2663","221005","288484","NA","259778","261677","261490","221049","261490","287794","289917","243490","221005","221007","207525","248616","261464","NA","2592","2590","2592","NA","287794","lineup1","no","6","no","1366"
"","white","no","xpyriment","legacy","legacy","0","no","relative","1","1","4","1","1","29","29","4","4","4","0","29","0","0","0","1","29","4","4","29","4","1","4","29","38","4","1","1","4","4","4","4","0","0","0","0","29","12/02/17 14:01:59","Executes Python code","yes","","lineup_videoVIPER.osexp","C:/Users/standalone/Desktop/1.25 - Viper","no","mono","no","24","no","black","no","yes","male","768","No","Yes","One","No","legacy","no","5","0","C:/Users/standalone/Desktop/1.25 - Viper/subject-45.csv","[member6]","3","2","5","7","1","4","xpyriment","Jazzy James","3.1.6","0","2","legacy","1024","2","48000","-16","experiment","45","odd","legacy","[target1]","absent","present","221008","2669","294473","221008","2669","281479","289917","292604","294473","301093","NA","277210","NA","2589","2663","221005","288484","NA","259778","261677","261490","221049","261490","287794","301093","289976","221005","221007","292604","295797","261464","NA","2592","2590","2592","NA","287794","lineup1","no","6","no","1366"
"","white","no","xpyriment","legacy","legacy","0","no","relative","1","1","4","1","1","29","29","4","4","4","0","29","0","0","0","1","29","4","4","29","4","1","4","29","38","4","1","1","4","4","4","4","0","0","0","0","29","12/02/17 14:01:59","Executes Python code","yes","","lineup_videoVIPER.osexp","C:/Users/standalone/Desktop/1.25 - Viper","no","mono","no","24","no","black","no","yes","male","768","No","Yes","One","No","legacy","no","5","0","C:/Users/standalone/Desktop/1.25 - Viper/subject-45.csv","[member6]","3","2","5","7","1","4","xpyriment","Jazzy James","3.1.6","0","2","legacy","1024","2","48000","-16","experiment","45","odd","legacy","[target1]","absent","present","221008","2669","294473","221008","2669","281479","289917","292604","294473","301093","NA","277210","NA","2589","2663","221005","288484","NA","259778","261677","261490","221049","261490","287794","301137","289976","221005","221007","292604","295797","261464","NA","2592","2590","2592","NA","287794","lineup1","no","6","no","1366"
"","white","no","xpyriment","legacy","legacy","0","no","relative","1","1","4","1","1","29","29","4","4","4","0","29","0","0","0","1","29","4","4","29","4","1","4","29","38","4","1","1","4","4","4","4","0","0","0","0","29","12/02/17 14:01:59","Executes Python code","yes","","lineup_videoVIPER.osexp","C:/Users/standalone/Desktop/1.25 - Viper","no","mono","no","24","no","black","no","yes","male","768","No","Yes","One","No","legacy","1pm","5","0","C:/Users/standalone/Desktop/1.25 - Viper/subject-45.csv","[member6]","3","2","5","7","1","4","xpyriment","Jazzy James","3.1.6","0","2","legacy","1024","2","48000","-16","experiment","45","odd","legacy","[target1]","absent","present","221008","2669","294473","221008","2669","281479","289917","292604","294473","301093","304891","277210","304892","2589","2663","221005","288484","NA","259778","261677","261490","221049","261490","287794","617738","289976","221005","221007","292604","295797","261464","NA","2592","2590","2592","301201","287794","lineup1","no","6","no","1366"
