"_prepare","background","bidi","canvas_backend","clock_backend","color_backend","compensation","confidence_immediate","coordinates","count_TA_sequence_setting","count_TP_sequence_setting","count_admin_check","count_check_TA","count_check_TP","count_check_confidence_imm","count_check_identification","count_check_made_identification","count_check_multiple_identification","count_check_proceeding_identification","count_check_time_of_exposure","count_confidence_imm","count_end_of_experiment","count_experiment","count_gender_lineup_loop","count_gender_randomization_sequence","count_identification_task","count_instructions_after_multiple","count_instructions_after_proceed_identification","count_instructions_before_view","count_lineup_loop","count_lineup_procedure_loop","count_lineup_procedure_sequence","count_lineup_sequence","count_logger","count_made_identification","count_member_randomization_loop","count_member_randomization_sequence","count_multiple_identification","count_proceed_identification","count_repeat_lineup_sequence_identification","count_repeat_lineup_sequence_multiple","count_target_setting","count_target_setting_loop","count_target_setting_sequence","count_time_of_exposure","count_video","datetime","description","disable_garbage_collection","empty_column","experiment_file","experiment_path","font_bold","font_family","font_italic","font_size","font_underline","foreground","form_clicks","fullscreen","gender","height","identification","identification_made","identification_multiple","identification_proceed","keyboard_backend","lecture_time","live_row","live_row_target_setting_loop","logfile","member","member1","member2","member3","member4","member5","member6","mouse_backend","opensesame_codename","opensesame_version","repeat_cycle","round_decimals","sampler_backend","sound_buf_size","sound_channels","sound_freq","sound_sample_size","start","subject_nr","subject_parity","synth_backend","target","target1","target2","time_TA_sequence_setting","time_TP_sequence_setting","time_admin_check","time_check_TA","time_check_TP","time_check_confidence_imm","time_check_identification","time_check_made_identification","time_check_multiple_identification","time_check_proceeding_identification","time_check_time_of_exposure","time_confidence_imm","time_end_of_experiment","time_experiment","time_gender_lineup_loop","time_gender_randomization_sequence","time_identification_task","time_instructions_after_multiple","time_instructions_after_proceed_identification","time_instructions_before_view","time_lineup_loop","time_lineup_procedure_loop","time_lineup_procedure_sequence","time_lineup_sequence","time_logger","time_made_identification","time_member_randomization_loop","time_member_randomization_sequence","time_multiple_identification","time_proceed_identification","time_repeat_lineup_sequence_identification","time_repeat_lineup_sequence_multiple","time_target_setting","time_target_setting_loop","time_target_setting_sequence","time_time_of_exposure","time_video","title","transparent_variables","trial","uniform_coordinates","width"
"","white","no","xpyriment","legacy","legacy","0","NA","relative","NA","NA","NA","NA","NA","NA","NA","NA","NA","NA","0","NA","0","0","0","NA","NA","NA","NA","NA","NA","NA","NA","NA","1","NA","NA","NA","NA","NA","NA","NA","0","0","0","0","NA","12/02/17 12:07:19","Executes Python code","yes","","lineup_videoVIPER.osexp","C:/Users/standalone/Desktop/1.25 - Viper","no","mono","no","24","no","black","no","yes","NA","768","NA","NA","NA","NA","legacy","no","0","0","C:/Users/standalone/Desktop/1.25 - Viper/subject-38.csv","NA","NA","NA","NA","NA","NA","NA","xpyriment","Jazzy James","3.1.6","0","2","legacy","1024","2","48000","-16","experiment","38","even","legacy","NA","absent","present","NA","NA","NA","NA","NA","NA","NA","NA","NA","NA","NA","NA","NA","2454","NA","NA","NA","NA","NA","NA","NA","NA","NA","NA","2456","NA","NA","NA","NA","NA","NA","NA","2456","2454","2456","NA","NA","lineup1","no","NA","no","1366"
"","white","no","xpyriment","legacy","legacy","0","NA","relative","0","0","NA","0","0","NA","NA","NA","NA","NA","0","NA","0","0","0","0","NA","NA","NA","NA","NA","0","NA","NA","2","NA","0","0","NA","NA","NA","NA","0","0","0","0","NA","12/02/17 12:07:19","Executes Python code","yes","","lineup_videoVIPER.osexp","C:/Users/standalone/Desktop/1.25 - Viper","no","mono","no","24","no","black","no","yes","female","768","NA","NA","NA","NA","legacy","no","0","0","C:/Users/standalone/Desktop/1.25 - Viper/subject-38.csv","NA","1","6","5","2","3","4","xpyriment","Jazzy James","3.1.6","0","2","legacy","1024","2","48000","-16","experiment","38","even","legacy","[target2]","absent","present","NA","2519","NA","NA","2519","NA","NA","NA","NA","NA","NA","NA","NA","2454","2515","2518","NA","NA","NA","NA","NA","NA","NA","NA","2519","NA","2518","2519","NA","NA","NA","NA","2456","2454","2456","NA","NA","lineup1","no","NA","no","1366"
"","white","no","xpyriment","legacy","legacy","0","no","relative","0","0","0","0","0","0","0","0","0","0","0","0","0","0","0","0","0","0","0","0","0","0","0","0","4","0","0","0","0","0","0","0","0","0","0","0","0","12/02/17 12:07:19","Executes Python code","yes","","lineup_videoVIPER.osexp","C:/Users/standalone/Desktop/1.25 - Viper","no","mono","no","24","no","black","no","yes","female","768","No","no","no","no","legacy","no","0","0","C:/Users/standalone/Desktop/1.25 - Viper/subject-38.csv","[member1]","1","6","5","2","3","4","xpyriment","Jazzy James","3.1.6","0","2","legacy","1024","2","48000","-16","experiment","38","even","legacy","[target2]","absent","present","NA","2519","NA","NA","2519","NA","52017","NA","NA","NA","NA","NA","NA","2454","2515","2518","48541","NA","NA","2898","2590","2566","2590","2898","52017","NA","2518","2519","NA","NA","NA","NA","2456","2454","2456","NA","42102","lineup1","no","1","no","1366"
"","white","no","xpyriment","legacy","legacy","0","no","relative","0","0","0","0","0","1","1","0","0","0","0","1","0","0","0","0","1","0","0","1","0","0","0","1","5","0","0","0","0","0","0","0","0","0","0","0","1","12/02/17 12:07:19","Executes Python code","yes","","lineup_videoVIPER.osexp","C:/Users/standalone/Desktop/1.25 - Viper","no","mono","no","24","no","black","no","yes","female","768","No","no","no","no","legacy","no","1","0","C:/Users/standalone/Desktop/1.25 - Viper/subject-38.csv","[member2]","1","6","5","2","3","4","xpyriment","Jazzy James","3.1.6","0","2","legacy","1024","2","48000","-16","experiment","38","even","legacy","[target2]","absent","present","NA","2519","NA","NA","2519","NA","57247","NA","NA","NA","NA","NA","NA","2454","2515","2518","54711","NA","NA","2898","2590","2566","2590","52247","57248","NA","2518","2519","NA","NA","NA","NA","2456","2454","2456","NA","52248","lineup1","no","2","no","1366"
"","white","no","xpyriment","legacy","legacy","0","no","relative","0","0","0","0","0","2","2","0","0","0","0","2","0","0","0","0","2","0","0","2","0","0","0","2","6","0","0","0","0","0","0","0","0","0","0","0","2","12/02/17 12:07:19","Executes Python code","yes","","lineup_videoVIPER.osexp","C:/Users/standalone/Desktop/1.25 - Viper","no","mono","no","24","no","black","no","yes","female","768","No","no","no","no","legacy","no","2","0","C:/Users/standalone/Desktop/1.25 - Viper/subject-38.csv","[member3]","1","6","5","2","3","4","xpyriment","Jazzy James","3.1.6","0","2","legacy","1024","2","48000","-16","experiment","38","even","legacy","[target2]","absent","present","NA","2519","NA","NA","2519","NA","61576","NA","NA","NA","NA","NA","NA","2454","2515","2518","59269","NA","NA","2898","2590","2566","2590","57468","61576","NA","2518","2519","NA","NA","NA","NA","2456","2454","2456","NA","57468","lineup1","no","3","no","1366"
"","white","no","xpyriment","legacy","legacy","0","no","relative","0","0","0","0","0","3","3","0","0","0","0","3","0","0","0","0","3","0","0","3","0","0","0","3","7","0","0","0","0","0","0","0","0","0","0","0","3","12/02/17 12:07:19","Executes Python code","yes","","lineup_videoVIPER.osexp","C:/Users/standalone/Desktop/1.25 - Viper","no","mono","no","24","no","black","no","yes","female","768","No","no","no","no","legacy","no","3","0","C:/Users/standalone/Desktop/1.25 - Viper/subject-38.csv","[member4]","1","6","5","2","3","4","xpyriment","Jazzy James","3.1.6","0","2","legacy","1024","2","48000","-16","experiment","38","even","legacy","[target2]","absent","present","NA","2519","NA","NA","2519","NA","67272","NA","NA","NA","NA","NA","NA","2454","2515","2518","65102","NA","NA","2898","2590","2566","2590","61831","67272","NA","2518","2519","NA","NA","NA","NA","2456","2454","2456","NA","61832","lineup1","no","4","no","1366"
"","white","no","xpyriment","legacy","legacy","0","no","relative","0","0","0","0","0","4","4","0","0","0","0","4","0","0","0","0","4","0","0","4","0","0","0","4","8","0","0","0","0","0","0","0","0","0","0","0","4","12/02/17 12:07:19","Executes Python code","yes","","lineup_videoVIPER.osexp","C:/Users/standalone/Desktop/1.25 - Viper","no","mono","no","24","no","black","no","yes","female","768","No","no","no","no","legacy","no","4","0","C:/Users/standalone/Desktop/1.25 - Viper/subject-38.csv","[member5]","1","6","5","2","3","4","xpyriment","Jazzy James","3.1.6","0","2","legacy","1024","2","48000","-16","experiment","38","even","legacy","[target2]","absent","present","NA","2519","NA","NA","2519","NA","73239","NA","NA","NA","NA","NA","NA","2454","2515","2518","71077","NA","NA","2898","2590","2566","2590","67496","73239","NA","2518","2519","NA","NA","NA","NA","2456","2454","2456","NA","67496","lineup1","no","5","no","1366"
"","white","no","xpyriment","legacy","legacy","0","no","relative","0","0","0","0","0","5","5","0","0","0","0","5","0","0","0","0","5","0","0","5","0","0","0","5","9","0","0","0","0","0","0","0","0","0","0","0","5","12/02/17 12:07:19","Executes Python code","yes","","lineup_videoVIPER.osexp","C:/Users/standalone/Desktop/1.25 - Viper","no","mono","no","24","no","black","no","yes","female","768","No","no","no","no","legacy","no","5","0","C:/Users/standalone/Desktop/1.25 - Viper/subject-38.csv","[member6]","1","6","5","2","3","4","xpyriment","Jazzy James","3.1.6","0","2","legacy","1024","2","48000","-16","experiment","38","even","legacy","[target2]","absent","present","NA","2519","NA","NA","2519","NA","77430","NA","NA","NA","NA","NA","NA","2454","2515","2518","75111","NA","NA","2898","2590","2566","2590","73476","77430","NA","2518","2519","NA","NA","NA","NA","2456","2454","2456","NA","73476","lineup1","no","6","no","1366"
"","white","no","xpyriment","legacy","legacy","0","no","relative","0","0","0","0","0","5","5","0","0","0","0","5","0","0","0","0","5","0","0","5","0","0","0","5","9","0","0","0","0","0","0","0","0","0","0","0","5","12/02/17 12:07:19","Executes Python code","yes","","lineup_videoVIPER.osexp","C:/Users/standalone/Desktop/1.25 - Viper","no","mono","no","24","no","black","no","yes","female","768","No","No","no","No","legacy","no","5","0","C:/Users/standalone/Desktop/1.25 - Viper/subject-38.csv","[member6]","1","6","5","2","3","4","xpyriment","Jazzy James","3.1.6","0","2","legacy","1024","2","48000","-16","experiment","38","even","legacy","[target2]","absent","present","NA","2519","81663","NA","2519","NA","77430","81663","NA","100958","NA","NA","NA","2454","2515","2518","75111","NA","NA","2898","2590","2566","2590","73476","100958","77515","2518","2519","NA","85172","NA","NA","2456","2454","2456","NA","73476","lineup1","no","6","no","1366"
"","white","no","xpyriment","legacy","legacy","0","no","relative","2","2","0","2","2","5","5","0","0","0","0","5","0","0","0","1","5","0","0","5","0","1","0","5","11","0","1","2","0","0","0","0","0","0","0","0","5","12/02/17 12:07:19","Executes Python code","yes","","lineup_videoVIPER.osexp","C:/Users/standalone/Desktop/1.25 - Viper","no","mono","no","24","no","black","no","yes","male","768","No","No","no","No","legacy","no","0","0","C:/Users/standalone/Desktop/1.25 - Viper/subject-38.csv","[member6]","4","1","5","3","2","7","xpyriment","Jazzy James","3.1.6","0","2","legacy","1024","2","48000","-16","experiment","38","even","legacy","[target1]","absent","present","101038","2519","81663","101038","2519","NA","77430","81663","NA","100958","NA","NA","NA","2454","2515","101033","75111","NA","NA","2898","2590","2566","2590","73476","101038","77515","101033","101038","NA","85172","NA","NA","2456","2454","2456","NA","73476","lineup1","no","6","no","1366"
"","white","no","xpyriment","legacy","legacy","0","no","relative","2","2","0","2","2","5","5","0","0","0","0","5","0","0","0","1","5","0","0","5","0","1","0","5","11","0","1","2","0","0","0","0","0","0","0","0","5","12/02/17 12:07:19","Executes Python code","yes","","lineup_videoVIPER.osexp","C:/Users/standalone/Desktop/1.25 - Viper","no","mono","no","24","no","black","no","yes","male","768","No","No","no","No","legacy","no","0","0","C:/Users/standalone/Desktop/1.25 - Viper/subject-38.csv","[member6]","4","1","5","3","2","7","xpyriment","Jazzy James","3.1.6","0","2","legacy","1024","2","48000","-16","experiment","38","even","legacy","[target1]","absent","present","101038","2519","81663","101038","2519","NA","77430","81663","NA","100958","NA","NA","NA","2454","2515","101033","75111","NA","NA","2898","2590","2566","2590","73476","101072","77515","101033","101038","NA","85172","NA","NA","2456","2454","2456","NA","73476","lineup1","no","6","no","1366"
"","white","no","xpyriment","legacy","legacy","0","no","relative","2","2","1","2","2","6","6","1","1","1","0","6","0","0","0","1","6","1","1","6","1","1","1","6","13","1","1","2","1","1","1","1","0","0","0","0","6","12/02/17 12:07:19","Executes Python code","yes","","lineup_videoVIPER.osexp","C:/Users/standalone/Desktop/1.25 - Viper","no","mono","no","24","no","black","no","yes","male","768","No","no","no","no","legacy","no","0","0","C:/Users/standalone/Desktop/1.25 - Viper/subject-38.csv","[member1]","4","1","5","3","2","7","xpyriment","Jazzy James","3.1.6","0","2","legacy","1024","2","48000","-16","experiment","38","even","legacy","[target1]","absent","present","101038","2519","81663","101038","2519","NA","110955","81663","NA","100958","NA","NA","NA","2454","2515","101033","108781","NA","NA","101328","101143","101116","101143","101328","110956","77515","101033","101038","NA","85172","NA","NA","2456","2454","2456","NA","106273","lineup1","no","1","no","1366"
"","white","no","xpyriment","legacy","legacy","0","no","relative","2","2","1","2","2","7","7","1","1","1","0","7","0","0","0","1","7","1","1","7","1","1","1","7","14","1","1","2","1","1","1","1","0","0","0","0","7","12/02/17 12:07:19","Executes Python code","yes","","lineup_videoVIPER.osexp","C:/Users/standalone/Desktop/1.25 - Viper","no","mono","no","24","no","black","no","yes","male","768","No","no","no","no","legacy","no","1","0","C:/Users/standalone/Desktop/1.25 - Viper/subject-38.csv","[member2]","4","1","5","3","2","7","xpyriment","Jazzy James","3.1.6","0","2","legacy","1024","2","48000","-16","experiment","38","even","legacy","[target1]","absent","present","101038","2519","81663","101038","2519","NA","114280","81663","NA","100958","NA","NA","NA","2454","2515","101033","112141","NA","NA","101328","101143","101116","101143","111196","114280","77515","101033","101038","NA","85172","NA","NA","2456","2454","2456","NA","111196","lineup1","no","2","no","1366"
"","white","no","xpyriment","legacy","legacy","0","no","relative","2","2","1","2","2","8","8","1","1","1","0","8","0","0","0","1","8","1","1","8","1","1","1","8","15","1","1","2","1","1","1","1","0","0","0","0","8","12/02/17 12:07:19","Executes Python code","yes","","lineup_videoVIPER.osexp","C:/Users/standalone/Desktop/1.25 - Viper","no","mono","no","24","no","black","no","yes","male","768","No","no","no","no","legacy","no","2","0","C:/Users/standalone/Desktop/1.25 - Viper/subject-38.csv","[member3]","4","1","5","3","2","7","xpyriment","Jazzy James","3.1.6","0","2","legacy","1024","2","48000","-16","experiment","38","even","legacy","[target1]","absent","present","101038","2519","81663","101038","2519","NA","118298","81663","NA","100958","NA","NA","NA","2454","2515","101033","115982","NA","NA","101328","101143","101116","101143","114502","118298","77515","101033","101038","NA","85172","NA","NA","2456","2454","2456","NA","114502","lineup1","no","3","no","1366"
"","white","no","xpyriment","legacy","legacy","0","no","relative","2","2","1","2","2","9","9","1","1","1","0","9","0","0","0","1","9","1","1","9","1","1","1","9","16","1","1","2","1","1","1","1","0","0","0","0","9","12/02/17 12:07:19","Executes Python code","yes","","lineup_videoVIPER.osexp","C:/Users/standalone/Desktop/1.25 - Viper","no","mono","no","24","no","black","no","yes","male","768","No","no","no","no","legacy","no","3","0","C:/Users/standalone/Desktop/1.25 - Viper/subject-38.csv","[member4]","4","1","5","3","2","7","xpyriment","Jazzy James","3.1.6","0","2","legacy","1024","2","48000","-16","experiment","38","even","legacy","[target1]","absent","present","101038","2519","81663","101038","2519","NA","123190","81663","NA","100958","NA","NA","NA","2454","2515","101033","121209","NA","NA","101328","101143","101116","101143","118524","123191","77515","101033","101038","NA","85172","NA","NA","2456","2454","2456","NA","118524","lineup1","no","4","no","1366"
"","white","no","xpyriment","legacy","legacy","0","no","relative","2","2","1","2","2","10","10","1","1","1","0","10","0","0","0","1","10","1","1","10","1","1","1","10","17","1","1","2","1","1","1","1","0","0","0","0","10","12/02/17 12:07:19","Executes Python code","yes","","lineup_videoVIPER.osexp","C:/Users/standalone/Desktop/1.25 - Viper","no","mono","no","24","no","black","no","yes","male","768","No","no","no","no","legacy","no","4","0","C:/Users/standalone/Desktop/1.25 - Viper/subject-38.csv","[member5]","4","1","5","3","2","7","xpyriment","Jazzy James","3.1.6","0","2","legacy","1024","2","48000","-16","experiment","38","even","legacy","[target1]","absent","present","101038","2519","81663","101038","2519","NA","127401","81663","NA","100958","NA","NA","NA","2454","2515","101033","125265","NA","NA","101328","101143","101116","101143","123434","127401","77515","101033","101038","NA","85172","NA","NA","2456","2454","2456","NA","123434","lineup1","no","5","no","1366"
"","white","no","xpyriment","legacy","legacy","0","no","relative","2","2","1","2","2","11","11","1","1","1","0","11","0","0","0","1","11","1","1","11","1","1","1","11","18","1","1","2","1","1","1","1","0","0","0","0","11","12/02/17 12:07:19","Executes Python code","yes","","lineup_videoVIPER.osexp","C:/Users/standalone/Desktop/1.25 - Viper","no","mono","no","24","no","black","no","yes","male","768","No","no","no","no","legacy","no","5","0","C:/Users/standalone/Desktop/1.25 - Viper/subject-38.csv","[member6]","4","1","5","3","2","7","xpyriment","Jazzy James","3.1.6","0","2","legacy","1024","2","48000","-16","experiment","38","even","legacy","[target1]","absent","present","101038","2519","81663","101038","2519","NA","133403","81663","NA","100958","NA","NA","NA","2454","2515","101033","131233","NA","NA","101328","101143","101116","101143","127636","133403","77515","101033","101038","NA","85172","NA","NA","2456","2454","2456","NA","127636","lineup1","no","6","no","1366"
"","white","no","xpyriment","legacy","legacy","0","no","relative","2","2","1","2","2","11","11","1","1","1","0","11","0","0","0","1","11","1","1","11","1","1","1","11","18","1","1","2","1","1","1","1","0","0","0","0","11","12/02/17 12:07:19","Executes Python code","yes","","lineup_videoVIPER.osexp","C:/Users/standalone/Desktop/1.25 - Viper","no","mono","no","24","no","black","no","yes","male","768","No","No","no","No","legacy","no","5","0","C:/Users/standalone/Desktop/1.25 - Viper/subject-38.csv","[member6]","4","1","5","3","2","7","xpyriment","Jazzy James","3.1.6","0","2","legacy","1024","2","48000","-16","experiment","38","even","legacy","[target1]","absent","present","101038","2519","136509","101038","2519","NA","133403","136509","NA","149531","NA","NA","NA","2454","2515","101033","131233","NA","NA","101328","101143","101116","101143","127636","149531","133469","101033","101038","NA","140758","NA","NA","2456","2454","2456","NA","127636","lineup1","no","6","no","1366"
"","white","no","xpyriment","legacy","legacy","0","no","relative","2","2","1","2","2","11","11","1","1","1","0","11","0","0","0","1","11","1","1","11","1","1","1","11","18","1","1","2","1","1","1","1","0","0","0","0","11","12/02/17 12:07:19","Executes Python code","yes","","lineup_videoVIPER.osexp","C:/Users/standalone/Desktop/1.25 - Viper","no","mono","no","24","no","black","no","yes","male","768","No","No","no","No","legacy","11am","5","0","C:/Users/standalone/Desktop/1.25 - Viper/subject-38.csv","[member6]","4","1","5","3","2","7","xpyriment","Jazzy James","3.1.6","0","2","legacy","1024","2","48000","-16","experiment","38","even","legacy","[target1]","absent","present","101038","2519","136509","101038","2519","NA","133403","136509","NA","149531","155316","NA","155317","2454","2515","101033","131233","NA","NA","101328","101143","101116","101143","127636","158354","133469","101033","101038","NA","140758","NA","NA","2456","2454","2456","149592","127636","lineup1","no","6","no","1366"
