"_prepare","background","bidi","canvas_backend","clock_backend","color_backend","compensation","confidence_immediate","coordinates","count_TA_sequence_setting","count_TP_sequence_setting","count_admin_check","count_check_TA","count_check_TP","count_check_confidence_imm","count_check_identification","count_check_made_identification","count_check_multiple_identification","count_check_proceeding_identification","count_check_time_of_exposure","count_confidence_imm","count_end_of_experiment","count_experiment","count_gender_lineup_loop","count_gender_randomization_sequence","count_identification_task","count_instructions_after_multiple","count_instructions_after_proceed_identification","count_instructions_before_view","count_lineup_loop","count_lineup_procedure_loop","count_lineup_procedure_sequence","count_lineup_sequence","count_logger","count_made_identification","count_member_randomization_loop","count_member_randomization_sequence","count_multiple_identification","count_proceed_identification","count_repeat_lineup_sequence_identification","count_repeat_lineup_sequence_multiple","count_target_setting","count_target_setting_loop","count_target_setting_sequence","count_time_of_exposure","count_video","datetime","description","disable_garbage_collection","empty_column","experiment_file","experiment_path","font_bold","font_family","font_italic","font_size","font_underline","foreground","form_clicks","fullscreen","gender","height","identification","identification_made","identification_multiple","identification_proceed","keyboard_backend","lecture_time","live_row","live_row_target_setting_loop","logfile","member","member1","member2","member3","member4","member5","member6","mouse_backend","opensesame_codename","opensesame_version","repeat_cycle","round_decimals","sampler_backend","sound_buf_size","sound_channels","sound_freq","sound_sample_size","start","subject_nr","subject_parity","synth_backend","target","target1","target2","time_TA_sequence_setting","time_TP_sequence_setting","time_admin_check","time_check_TA","time_check_TP","time_check_confidence_imm","time_check_identification","time_check_made_identification","time_check_multiple_identification","time_check_proceeding_identification","time_check_time_of_exposure","time_confidence_imm","time_end_of_experiment","time_experiment","time_gender_lineup_loop","time_gender_randomization_sequence","time_identification_task","time_instructions_after_multiple","time_instructions_after_proceed_identification","time_instructions_before_view","time_lineup_loop","time_lineup_procedure_loop","time_lineup_procedure_sequence","time_lineup_sequence","time_logger","time_made_identification","time_member_randomization_loop","time_member_randomization_sequence","time_multiple_identification","time_proceed_identification","time_repeat_lineup_sequence_identification","time_repeat_lineup_sequence_multiple","time_target_setting","time_target_setting_loop","time_target_setting_sequence","time_time_of_exposure","time_video","title","transparent_variables","trial","uniform_coordinates","width"
"","white","no","xpyriment","legacy","legacy","0","NA","relative","NA","NA","NA","NA","NA","NA","NA","NA","NA","NA","0","NA","0","0","0","NA","NA","NA","NA","NA","NA","NA","NA","NA","1","NA","NA","NA","NA","NA","NA","NA","0","0","0","0","NA","12/02/17 12:16:41","Executes Python code","yes","","lineup_videoVIPER.osexp","C:/Users/standalone/Desktop/1.25 - Viper","no","mono","no","24","no","black","no","yes","NA","768","NA","NA","NA","NA","legacy","no","0","0","C:/Users/standalone/Desktop/1.25 - Viper/subject-41.csv","NA","NA","NA","NA","NA","NA","NA","xpyriment","Jazzy James","3.1.6","0","2","legacy","1024","2","48000","-16","experiment","41","odd","legacy","NA","absent","present","NA","NA","NA","NA","NA","NA","NA","NA","NA","NA","NA","NA","NA","2498","NA","NA","NA","NA","NA","NA","NA","NA","NA","NA","2500","NA","NA","NA","NA","NA","NA","NA","2500","2498","2500","NA","NA","lineup1","no","NA","no","1366"
"","white","no","xpyriment","legacy","legacy","0","NA","relative","1","1","NA","1","1","NA","NA","NA","NA","NA","0","NA","0","0","0","0","NA","NA","NA","NA","NA","0","NA","NA","3","NA","0","1","NA","NA","NA","NA","0","0","0","0","NA","12/02/17 12:16:41","Executes Python code","yes","","lineup_videoVIPER.osexp","C:/Users/standalone/Desktop/1.25 - Viper","no","mono","no","24","no","black","no","yes","female","768","NA","NA","NA","NA","legacy","no","0","0","C:/Users/standalone/Desktop/1.25 - Viper/subject-41.csv","NA","1","6","2","4","5","3","xpyriment","Jazzy James","3.1.6","0","2","legacy","1024","2","48000","-16","experiment","41","odd","legacy","[target2]","absent","present","NA","2561","NA","NA","2561","NA","NA","NA","NA","NA","NA","NA","NA","2498","2552","2556","NA","NA","NA","NA","NA","NA","NA","NA","2562","NA","2556","2561","NA","NA","NA","NA","2500","2498","2500","NA","NA","lineup1","no","NA","no","1366"
"","white","no","xpyriment","legacy","legacy","0","NA","relative","1","1","NA","1","1","NA","NA","NA","NA","NA","0","NA","0","0","0","0","NA","NA","NA","NA","NA","0","NA","NA","3","NA","0","1","NA","NA","NA","NA","0","0","0","0","NA","12/02/17 12:16:41","Executes Python code","yes","","lineup_videoVIPER.osexp","C:/Users/standalone/Desktop/1.25 - Viper","no","mono","no","24","no","black","no","yes","female","768","NA","NA","NA","NA","legacy","no","0","0","C:/Users/standalone/Desktop/1.25 - Viper/subject-41.csv","NA","1","6","2","4","5","3","xpyriment","Jazzy James","3.1.6","0","2","legacy","1024","2","48000","-16","experiment","41","odd","legacy","[target2]","absent","present","NA","2561","NA","NA","2561","NA","NA","NA","NA","NA","NA","NA","NA","2498","2552","2556","NA","NA","NA","NA","NA","NA","NA","NA","2605","NA","2556","2561","NA","NA","NA","NA","2500","2498","2500","NA","NA","lineup1","no","NA","no","1366"
"","white","no","xpyriment","legacy","legacy","0","60","relative","1","1","0","1","1","0","0","0","0","0","0","0","0","0","0","0","0","0","0","0","0","0","0","0","5","0","0","1","0","0","0","0","0","0","0","0","0","12/02/17 12:16:41","Executes Python code","yes","","lineup_videoVIPER.osexp","C:/Users/standalone/Desktop/1.25 - Viper","no","mono","no","24","no","black","no","yes","female","768","Yes","no","no","no","legacy","no","0","0","C:/Users/standalone/Desktop/1.25 - Viper/subject-41.csv","[member1]","1","6","2","4","5","3","xpyriment","Jazzy James","3.1.6","0","2","legacy","1024","2","48000","-16","experiment","41","odd","legacy","[target2]","absent","present","NA","2561","NA","NA","2561","85018","79952","NA","NA","NA","NA","79952","NA","2498","2552","2556","67632","NA","NA","2978","2664","2639","2664","2978","85018","NA","2556","2561","NA","NA","NA","NA","2500","2498","2500","NA","48023","lineup1","no","1","no","1366"
"","white","no","xpyriment","legacy","legacy","0","no","relative","1","1","0","1","1","1","1","0","0","0","0","1","0","0","0","0","1","0","0","1","0","0","0","1","6","0","0","1","0","0","0","0","0","0","0","0","1","12/02/17 12:16:41","Executes Python code","yes","","lineup_videoVIPER.osexp","C:/Users/standalone/Desktop/1.25 - Viper","no","mono","no","24","no","black","no","yes","female","768","No","no","no","no","legacy","no","1","0","C:/Users/standalone/Desktop/1.25 - Viper/subject-41.csv","[member2]","1","6","2","4","5","3","xpyriment","Jazzy James","3.1.6","0","2","legacy","1024","2","48000","-16","experiment","41","odd","legacy","[target2]","absent","present","NA","2561","NA","NA","2561","85018","88999","NA","NA","NA","NA","79952","NA","2498","2552","2556","87011","NA","NA","2978","2664","2639","2664","85241","88999","NA","2556","2561","NA","NA","NA","NA","2500","2498","2500","NA","85241","lineup1","no","2","no","1366"
"","white","no","xpyriment","legacy","legacy","0","no","relative","1","1","0","1","1","2","2","0","0","0","0","2","0","0","0","0","2","0","0","2","0","0","0","2","7","0","0","1","0","0","0","0","0","0","0","0","2","12/02/17 12:16:41","Executes Python code","yes","","lineup_videoVIPER.osexp","C:/Users/standalone/Desktop/1.25 - Viper","no","mono","no","24","no","black","no","yes","female","768","No","no","no","no","legacy","no","2","0","C:/Users/standalone/Desktop/1.25 - Viper/subject-41.csv","[member3]","1","6","2","4","5","3","xpyriment","Jazzy James","3.1.6","0","2","legacy","1024","2","48000","-16","experiment","41","odd","legacy","[target2]","absent","present","NA","2561","NA","NA","2561","85018","92236","NA","NA","NA","NA","79952","NA","2498","2552","2556","90259","NA","NA","2978","2664","2639","2664","89237","92236","NA","2556","2561","NA","NA","NA","NA","2500","2498","2500","NA","89237","lineup1","no","3","no","1366"
"","white","no","xpyriment","legacy","legacy","0","no","relative","1","1","0","1","1","3","3","0","0","0","0","3","0","0","0","0","3","0","0","3","0","0","0","3","8","0","0","1","0","0","0","0","0","0","0","0","3","12/02/17 12:16:41","Executes Python code","yes","","lineup_videoVIPER.osexp","C:/Users/standalone/Desktop/1.25 - Viper","no","mono","no","24","no","black","no","yes","female","768","No","no","no","no","legacy","no","3","0","C:/Users/standalone/Desktop/1.25 - Viper/subject-41.csv","[member4]","1","6","2","4","5","3","xpyriment","Jazzy James","3.1.6","0","2","legacy","1024","2","48000","-16","experiment","41","odd","legacy","[target2]","absent","present","NA","2561","NA","NA","2561","85018","95386","NA","NA","NA","NA","79952","NA","2498","2552","2556","93407","NA","NA","2978","2664","2639","2664","92469","95387","NA","2556","2561","NA","NA","NA","NA","2500","2498","2500","NA","92469","lineup1","no","4","no","1366"
"","white","no","xpyriment","legacy","legacy","0","no","relative","1","1","0","1","1","4","4","0","0","0","0","4","0","0","0","0","4","0","0","4","0","0","0","4","9","0","0","1","0","0","0","0","0","0","0","0","4","12/02/17 12:16:41","Executes Python code","yes","","lineup_videoVIPER.osexp","C:/Users/standalone/Desktop/1.25 - Viper","no","mono","no","24","no","black","no","yes","female","768","No","no","no","no","legacy","no","4","0","C:/Users/standalone/Desktop/1.25 - Viper/subject-41.csv","[member5]","1","6","2","4","5","3","xpyriment","Jazzy James","3.1.6","0","2","legacy","1024","2","48000","-16","experiment","41","odd","legacy","[target2]","absent","present","NA","2561","NA","NA","2561","85018","98317","NA","NA","NA","NA","79952","NA","2498","2552","2556","96522","NA","NA","2978","2664","2639","2664","95595","98317","NA","2556","2561","NA","NA","NA","NA","2500","2498","2500","NA","95595","lineup1","no","5","no","1366"
"","white","no","xpyriment","legacy","legacy","0","no","relative","1","1","0","1","1","5","5","0","0","0","0","5","0","0","0","0","5","0","0","5","0","0","0","5","10","0","0","1","0","0","0","0","0","0","0","0","5","12/02/17 12:16:41","Executes Python code","yes","","lineup_videoVIPER.osexp","C:/Users/standalone/Desktop/1.25 - Viper","no","mono","no","24","no","black","no","yes","female","768","No","no","no","no","legacy","no","5","0","C:/Users/standalone/Desktop/1.25 - Viper/subject-41.csv","[member6]","1","6","2","4","5","3","xpyriment","Jazzy James","3.1.6","0","2","legacy","1024","2","48000","-16","experiment","41","odd","legacy","[target2]","absent","present","NA","2561","NA","NA","2561","85018","101482","NA","NA","NA","NA","79952","NA","2498","2552","2556","99328","NA","NA","2978","2664","2639","2664","98575","101482","NA","2556","2561","NA","NA","NA","NA","2500","2498","2500","NA","98575","lineup1","no","6","no","1366"
"","white","no","xpyriment","legacy","legacy","0","no","relative","1","1","0","1","1","5","5","0","0","0","0","5","0","0","0","0","5","0","0","5","0","0","0","5","10","0","0","1","0","0","0","0","0","0","0","0","5","12/02/17 12:16:41","Executes Python code","yes","","lineup_videoVIPER.osexp","C:/Users/standalone/Desktop/1.25 - Viper","no","mono","no","24","no","black","no","yes","female","768","No","Yes","One","No","legacy","no","5","0","C:/Users/standalone/Desktop/1.25 - Viper/subject-41.csv","[member6]","1","6","2","4","5","3","xpyriment","Jazzy James","3.1.6","0","2","legacy","1024","2","48000","-16","experiment","41","odd","legacy","[target2]","absent","present","NA","2561","110427","NA","2561","85018","101482","106120","110427","123635","NA","79952","NA","2498","2552","2556","99328","NA","NA","2978","2664","2639","2664","98575","123635","101532","2556","2561","106120","115067","NA","NA","2500","2498","2500","NA","98575","lineup1","no","6","no","1366"
"","white","no","xpyriment","legacy","legacy","0","no","relative","2","2","0","2","2","5","5","0","0","0","0","5","0","0","0","1","5","0","0","5","0","1","0","5","11","0","1","2","0","0","0","0","0","0","0","0","5","12/02/17 12:16:41","Executes Python code","yes","","lineup_videoVIPER.osexp","C:/Users/standalone/Desktop/1.25 - Viper","no","mono","no","24","no","black","no","yes","male","768","No","Yes","One","No","legacy","no","0","0","C:/Users/standalone/Desktop/1.25 - Viper/subject-41.csv","[member6]","4","5","1","2","3","7","xpyriment","Jazzy James","3.1.6","0","2","legacy","1024","2","48000","-16","experiment","41","odd","legacy","[target1]","absent","present","123715","2561","110427","123716","2561","85018","101482","106120","110427","123635","NA","79952","NA","2498","2552","123713","99328","NA","NA","2978","2664","2639","2664","98575","123716","101532","123713","123715","106120","115067","NA","NA","2500","2498","2500","NA","98575","lineup1","no","6","no","1366"
"","white","no","xpyriment","legacy","legacy","0","no","relative","2","2","1","2","2","6","6","1","1","1","0","6","0","0","0","1","6","1","1","6","1","1","1","6","13","1","1","2","1","1","1","1","0","0","0","0","6","12/02/17 12:16:41","Executes Python code","yes","","lineup_videoVIPER.osexp","C:/Users/standalone/Desktop/1.25 - Viper","no","mono","no","24","no","black","no","yes","male","768","No","no","no","no","legacy","no","0","0","C:/Users/standalone/Desktop/1.25 - Viper/subject-41.csv","[member1]","4","5","1","2","3","7","xpyriment","Jazzy James","3.1.6","0","2","legacy","1024","2","48000","-16","experiment","41","odd","legacy","[target1]","absent","present","123715","2561","110427","123716","2561","85018","132831","106120","110427","123635","NA","79952","NA","2498","2552","123713","130464","NA","NA","123973","123783","123757","123783","123973","132831","101532","123713","123715","106120","115067","NA","NA","2500","2498","2500","NA","128793","lineup1","no","1","no","1366"
"","white","no","xpyriment","legacy","legacy","0","no","relative","2","2","1","2","2","7","7","1","1","1","0","7","0","0","0","1","7","1","1","7","1","1","1","7","14","1","1","2","1","1","1","1","0","0","0","0","7","12/02/17 12:16:41","Executes Python code","yes","","lineup_videoVIPER.osexp","C:/Users/standalone/Desktop/1.25 - Viper","no","mono","no","24","no","black","no","yes","male","768","No","no","no","no","legacy","no","1","0","C:/Users/standalone/Desktop/1.25 - Viper/subject-41.csv","[member2]","4","5","1","2","3","7","xpyriment","Jazzy James","3.1.6","0","2","legacy","1024","2","48000","-16","experiment","41","odd","legacy","[target1]","absent","present","123715","2561","110427","123716","2561","85018","135809","106120","110427","123635","NA","79952","NA","2498","2552","123713","133827","NA","NA","123973","123783","123757","123783","133136","135810","101532","123713","123715","106120","115067","NA","NA","2500","2498","2500","NA","133137","lineup1","no","2","no","1366"
"","white","no","xpyriment","legacy","legacy","0","no","relative","2","2","1","2","2","8","8","1","1","1","0","8","0","0","0","1","8","1","1","8","1","1","1","8","15","1","1","2","1","1","1","1","0","0","0","0","8","12/02/17 12:16:41","Executes Python code","yes","","lineup_videoVIPER.osexp","C:/Users/standalone/Desktop/1.25 - Viper","no","mono","no","24","no","black","no","yes","male","768","No","no","no","no","legacy","no","2","0","C:/Users/standalone/Desktop/1.25 - Viper/subject-41.csv","[member3]","4","5","1","2","3","7","xpyriment","Jazzy James","3.1.6","0","2","legacy","1024","2","48000","-16","experiment","41","odd","legacy","[target1]","absent","present","123715","2561","110427","123716","2561","85018","143732","106120","110427","123635","NA","79952","NA","2498","2552","123713","141672","NA","NA","123973","123783","123757","123783","136040","143732","101532","123713","123715","106120","115067","NA","NA","2500","2498","2500","NA","136040","lineup1","no","3","no","1366"
"","white","no","xpyriment","legacy","legacy","0","no","relative","2","2","1","2","2","9","9","1","1","1","0","9","0","0","0","1","9","1","1","9","1","1","1","9","16","1","1","2","1","1","1","1","0","0","0","0","9","12/02/17 12:16:41","Executes Python code","yes","","lineup_videoVIPER.osexp","C:/Users/standalone/Desktop/1.25 - Viper","no","mono","no","24","no","black","no","yes","male","768","No","no","no","no","legacy","no","3","0","C:/Users/standalone/Desktop/1.25 - Viper/subject-41.csv","[member4]","4","5","1","2","3","7","xpyriment","Jazzy James","3.1.6","0","2","legacy","1024","2","48000","-16","experiment","41","odd","legacy","[target1]","absent","present","123715","2561","110427","123716","2561","85018","146615","106120","110427","123635","NA","79952","NA","2498","2552","123713","144640","NA","NA","123973","123783","123757","123783","143965","146615","101532","123713","123715","106120","115067","NA","NA","2500","2498","2500","NA","143966","lineup1","no","4","no","1366"
"","white","no","xpyriment","legacy","legacy","0","60","relative","2","2","1","2","2","10","10","1","1","1","0","10","0","0","0","1","10","1","1","10","1","1","1","10","17","1","1","2","1","1","1","1","0","0","0","0","10","12/02/17 12:16:41","Executes Python code","yes","","lineup_videoVIPER.osexp","C:/Users/standalone/Desktop/1.25 - Viper","no","mono","no","24","no","black","no","yes","male","768","Yes","no","no","no","legacy","no","4","0","C:/Users/standalone/Desktop/1.25 - Viper/subject-41.csv","[member5]","4","5","1","2","3","7","xpyriment","Jazzy James","3.1.6","0","2","legacy","1024","2","48000","-16","experiment","41","odd","legacy","[target1]","absent","present","123715","2561","110427","123716","2561","162733","157673","106120","110427","123635","NA","157673","NA","2498","2552","123713","154367","NA","NA","123973","123783","123757","123783","146853","162733","101532","123713","123715","106120","115067","NA","NA","2500","2498","2500","NA","146853","lineup1","no","5","no","1366"
"","white","no","xpyriment","legacy","legacy","0","no","relative","2","2","1","2","2","11","11","1","1","1","0","11","0","0","0","1","11","1","1","11","1","1","1","11","18","1","1","2","1","1","1","1","0","0","0","0","11","12/02/17 12:16:41","Executes Python code","yes","","lineup_videoVIPER.osexp","C:/Users/standalone/Desktop/1.25 - Viper","no","mono","no","24","no","black","no","yes","male","768","No","no","no","no","legacy","no","5","0","C:/Users/standalone/Desktop/1.25 - Viper/subject-41.csv","[member6]","4","5","1","2","3","7","xpyriment","Jazzy James","3.1.6","0","2","legacy","1024","2","48000","-16","experiment","41","odd","legacy","[target1]","absent","present","123715","2561","110427","123716","2561","162733","172056","106120","110427","123635","NA","157673","NA","2498","2552","123713","169991","NA","NA","123973","123783","123757","123783","162952","172056","101532","123713","123715","106120","115067","NA","NA","2500","2498","2500","NA","162952","lineup1","no","6","no","1366"
"","white","no","xpyriment","legacy","legacy","0","no","relative","2","2","1","2","2","11","11","1","1","1","0","11","0","0","0","1","11","1","1","11","1","1","1","11","18","1","1","2","1","1","1","1","0","0","0","0","11","12/02/17 12:16:41","Executes Python code","yes","","lineup_videoVIPER.osexp","C:/Users/standalone/Desktop/1.25 - Viper","no","mono","no","24","no","black","no","yes","male","768","No","Yes","One","No","legacy","no","5","0","C:/Users/standalone/Desktop/1.25 - Viper/subject-41.csv","[member6]","4","5","1","2","3","7","xpyriment","Jazzy James","3.1.6","0","2","legacy","1024","2","48000","-16","experiment","41","odd","legacy","[target1]","absent","present","123715","2561","178533","123716","2561","162733","172056","175722","178533","188777","NA","157673","NA","2498","2552","123713","169991","NA","NA","123973","123783","123757","123783","162952","188777","172106","123713","123715","175722","180776","NA","NA","2500","2498","2500","NA","162952","lineup1","no","6","no","1366"
"","white","no","xpyriment","legacy","legacy","0","no","relative","2","2","1","2","2","11","11","1","1","1","0","11","0","0","0","1","11","1","1","11","1","1","1","11","18","1","1","2","1","1","1","1","0","0","0","0","11","12/02/17 12:16:41","Executes Python code","yes","","lineup_videoVIPER.osexp","C:/Users/standalone/Desktop/1.25 - Viper","no","mono","no","24","no","black","no","yes","male","768","No","Yes","One","No","legacy","11am","5","0","C:/Users/standalone/Desktop/1.25 - Viper/subject-41.csv","[member6]","4","5","1","2","3","7","xpyriment","Jazzy James","3.1.6","0","2","legacy","1024","2","48000","-16","experiment","41","odd","legacy","[target1]","absent","present","123715","2561","178533","123716","2561","162733","172056","175722","178533","188777","193942","157673","193942","2498","2552","123713","169991","NA","NA","123973","123783","123757","123783","162952","202327","172106","123713","123715","175722","180776","NA","NA","2500","2498","2500","188839","162952","lineup1","no","6","no","1366"
