"_prepare"	"acc"	"accuracy"	"average_response_time"	"avg_rt"	"background"	"bidi"	"canvas_backend"	"clock_backend"	"color_backend"	"compensation"	"confidence_immediate"	"coordinates"	"correct"	"correct_live_view"	"count_admin_check"	"count_check_confidence_imm"	"count_check_identification"	"count_check_made_identification"	"count_check_multiple_identification"	"count_check_proceeding_identification"	"count_confidence_imm"	"count_end_of_experiment"	"count_experiment"	"count_identification_task"	"count_instructions"	"count_instructions_after_multiple"	"count_instructions_after_proceed_identification"	"count_instructions_before_view"	"count_instructions_sequence"	"count_lineup_loop"	"count_lineup_sequence"	"count_live_lineup"	"count_live_view"	"count_logger"	"count_made_identification"	"count_multiple_identification"	"count_proceed_identification"	"count_repeat_lineup_sequence_identification"	"count_repeat_lineup_sequence_multiple"	"count_setting_sequence"	"cursor_x"	"cursor_y"	"datetime"	"description"	"disable_garbage_collection"	"empty_column"	"experiment_file"	"experiment_path"	"font_bold"	"font_family"	"font_italic"	"font_size"	"font_underline"	"foreground"	"form_clicks"	"form_response"	"fullscreen"	"height"	"identification"	"identification_made"	"identification_multiple"	"identification_proceed"	"keyboard_backend"	"live_row"	"live_row_instructions"	"live_row_lineup_loop"	"live_row_live_lineup"	"logfile"	"member"	"mouse_backend"	"opensesame_codename"	"opensesame_version"	"repeat_cycle"	"response"	"response_live_view"	"response_time"	"response_time_live_view"	"round_decimals"	"sampler_backend"	"sound_buf_size"	"sound_channels"	"sound_freq"	"sound_sample_size"	"start"	"subject_nr"	"subject_parity"	"synth_backend"	"time_admin_check"	"time_check_confidence_imm"	"time_check_identification"	"time_check_made_identification"	"time_check_multiple_identification"	"time_check_proceeding_identification"	"time_confidence_imm"	"time_end_of_experiment"	"time_experiment"	"time_identification_task"	"time_instructions"	"time_instructions_after_multiple"	"time_instructions_after_proceed_identification"	"time_instructions_before_view"	"time_instructions_sequence"	"time_lineup_loop"	"time_lineup_sequence"	"time_live_lineup"	"time_live_view"	"time_logger"	"time_made_identification"	"time_multiple_identification"	"time_proceed_identification"	"time_repeat_lineup_sequence_identification"	"time_repeat_lineup_sequence_multiple"	"time_setting_sequence"	"title"	"total_correct"	"total_response_time"	"total_responses"	"transparent_variables"	"uniform_coordinates"	"width"
"1"	""	"undefined"	"undefined"	"undefined"	"undefined"	"white"	"no"	"xpyriment"	"legacy"	"legacy"	"0"	"no"	"relative"	"undefined"	"undefined"	"0"	"0"	"0"	"0"	"0"	"0"	"0"	"0"	"0"	"0"	"0"	"0"	"0"	"0"	"0"	"0"	"0"	"0"	"0"	"2"	"0"	"0"	"0"	"0"	"0"	"0"	"685"	"767"	"02/14/18 14:44:15"	"Executes Python code"	"yes"	""	"lineup_liveWOMEN_W.osexp"	"C:\Users\Laptop3\Desktop\Wednesday 1402"	"no"	"mono"	"no"	"24"	"no"	"black"	"no"	"Continue"	"yes"	"768"	"No"	"no"	"no"	"no"	"legacy"	"0"	"0"	"0"	"0"	"C:/Users/Laptop3/Desktop/Wednesday 1402/subject-53.csv"	"1"	"xpyriment"	"Jazzy James"	"3.1.4"	"0"	"1"	"1"	"42666"	"42666"	"2"	"legacy"	"1024"	"2"	"48000"	"-16"	"experiment"	"53"	"odd"	"legacy"	NA	NA	"52458"	NA	NA	NA	NA	NA	"1473"	"48386"	"1473"	NA	NA	"1477"	"1477"	"5664"	"5664"	"5648"	"5720"	"52458"	NA	NA	NA	NA	NA	"5719"	"lineup1"	"0"	"0"	"0"	"no"	"no"	"1366"
"2"	""	"undefined"	"undefined"	"undefined"	"undefined"	"white"	"no"	"xpyriment"	"legacy"	"legacy"	"0"	"no"	"relative"	"undefined"	"undefined"	"0"	"1"	"1"	"0"	"0"	"0"	"1"	"0"	"0"	"1"	"0"	"0"	"0"	"0"	"0"	"0"	"0"	"0"	"1"	"3"	"0"	"0"	"0"	"0"	"0"	"1"	"121"	"660"	"02/14/18 14:44:15"	"Executes Python code"	"yes"	""	"lineup_liveWOMEN_W.osexp"	"C:\Users\Laptop3\Desktop\Wednesday 1402"	"no"	"mono"	"no"	"24"	"no"	"black"	"no"	"Continue"	"yes"	"768"	"No"	"no"	"no"	"no"	"legacy"	"1"	"0"	"1"	"0"	"C:/Users/Laptop3/Desktop/Wednesday 1402/subject-53.csv"	"2"	"xpyriment"	"Jazzy James"	"3.1.4"	"0"	"1"	"1"	"18675"	"18675"	"2"	"legacy"	"1024"	"2"	"48000"	"-16"	"experiment"	"53"	"odd"	"legacy"	NA	NA	"74324"	NA	NA	NA	NA	NA	"1473"	"71227"	"1473"	NA	NA	"1477"	"1477"	"5664"	"5664"	"5648"	"52551"	"74324"	NA	NA	NA	NA	NA	"52550"	"lineup1"	"0"	"0"	"0"	"no"	"no"	"1366"
"3"	""	"undefined"	"undefined"	"undefined"	"undefined"	"white"	"no"	"xpyriment"	"legacy"	"legacy"	"0"	"no"	"relative"	"undefined"	"undefined"	"0"	"2"	"2"	"0"	"0"	"0"	"2"	"0"	"0"	"2"	"0"	"0"	"0"	"0"	"0"	"0"	"0"	"0"	"2"	"4"	"0"	"0"	"0"	"0"	"0"	"2"	"88"	"692"	"02/14/18 14:44:15"	"Executes Python code"	"yes"	""	"lineup_liveWOMEN_W.osexp"	"C:\Users\Laptop3\Desktop\Wednesday 1402"	"no"	"mono"	"no"	"24"	"no"	"black"	"no"	"Continue"	"yes"	"768"	"No"	"no"	"no"	"no"	"legacy"	"2"	"0"	"2"	"0"	"C:/Users/Laptop3/Desktop/Wednesday 1402/subject-53.csv"	"3"	"xpyriment"	"Jazzy James"	"3.1.4"	"0"	"1"	"1"	"21859"	"21859"	"2"	"legacy"	"1024"	"2"	"48000"	"-16"	"experiment"	"53"	"odd"	"legacy"	NA	NA	"99375"	NA	NA	NA	NA	NA	"1473"	"96282"	"1473"	NA	NA	"1477"	"1477"	"5664"	"5664"	"5648"	"74423"	"99375"	NA	NA	NA	NA	NA	"74422"	"lineup1"	"0"	"0"	"0"	"no"	"no"	"1366"
"4"	""	"undefined"	"undefined"	"undefined"	"undefined"	"white"	"no"	"xpyriment"	"legacy"	"legacy"	"0"	"no"	"relative"	"undefined"	"undefined"	"0"	"3"	"3"	"0"	"0"	"0"	"3"	"0"	"0"	"3"	"0"	"0"	"0"	"0"	"0"	"0"	"0"	"0"	"3"	"5"	"0"	"0"	"0"	"0"	"0"	"3"	"26"	"759"	"02/14/18 14:44:15"	"Executes Python code"	"yes"	""	"lineup_liveWOMEN_W.osexp"	"C:\Users\Laptop3\Desktop\Wednesday 1402"	"no"	"mono"	"no"	"24"	"no"	"black"	"no"	"Continue"	"yes"	"768"	"No"	"no"	"no"	"no"	"legacy"	"3"	"0"	"3"	"0"	"C:/Users/Laptop3/Desktop/Wednesday 1402/subject-53.csv"	"4"	"xpyriment"	"Jazzy James"	"3.1.4"	"0"	"1"	"1"	"16155"	"16155"	"2"	"legacy"	"1024"	"2"	"48000"	"-16"	"experiment"	"53"	"odd"	"legacy"	NA	NA	"120663"	NA	NA	NA	NA	NA	"1473"	"115626"	"1473"	NA	NA	"1477"	"1477"	"5664"	"5664"	"5648"	"99471"	"120663"	NA	NA	NA	NA	NA	"99470"	"lineup1"	"0"	"0"	"0"	"no"	"no"	"1366"
"5"	""	"undefined"	"undefined"	"undefined"	"undefined"	"white"	"no"	"xpyriment"	"legacy"	"legacy"	"0"	"no"	"relative"	"undefined"	"undefined"	"0"	"4"	"4"	"0"	"0"	"0"	"4"	"0"	"0"	"4"	"0"	"0"	"0"	"0"	"0"	"0"	"0"	"0"	"4"	"6"	"0"	"0"	"0"	"0"	"0"	"4"	"29"	"719"	"02/14/18 14:44:15"	"Executes Python code"	"yes"	""	"lineup_liveWOMEN_W.osexp"	"C:\Users\Laptop3\Desktop\Wednesday 1402"	"no"	"mono"	"no"	"24"	"no"	"black"	"no"	"Continue"	"yes"	"768"	"No"	"no"	"no"	"no"	"legacy"	"4"	"0"	"4"	"0"	"C:/Users/Laptop3/Desktop/Wednesday 1402/subject-53.csv"	"5"	"xpyriment"	"Jazzy James"	"3.1.4"	"0"	"1"	"1"	"20609"	"20609"	"2"	"legacy"	"1024"	"2"	"48000"	"-16"	"experiment"	"53"	"odd"	"legacy"	NA	NA	"144366"	NA	NA	NA	NA	NA	"1473"	"141370"	"1473"	NA	NA	"1477"	"1477"	"5664"	"5664"	"5648"	"120761"	"144367"	NA	NA	NA	NA	NA	"120760"	"lineup1"	"0"	"0"	"0"	"no"	"no"	"1366"
"6"	""	"undefined"	"undefined"	"undefined"	"undefined"	"white"	"no"	"xpyriment"	"legacy"	"legacy"	"0"	"no"	"relative"	"undefined"	"undefined"	"0"	"5"	"5"	"0"	"0"	"0"	"5"	"0"	"0"	"5"	"0"	"0"	"0"	"0"	"0"	"0"	"0"	"0"	"5"	"7"	"0"	"0"	"0"	"0"	"0"	"5"	"191"	"694"	"02/14/18 14:44:15"	"Executes Python code"	"yes"	""	"lineup_liveWOMEN_W.osexp"	"C:\Users\Laptop3\Desktop\Wednesday 1402"	"no"	"mono"	"no"	"24"	"no"	"black"	"no"	"Continue"	"yes"	"768"	"No"	"no"	"no"	"no"	"legacy"	"5"	"0"	"5"	"0"	"C:/Users/Laptop3/Desktop/Wednesday 1402/subject-53.csv"	"6"	"xpyriment"	"Jazzy James"	"3.1.4"	"0"	"1"	"1"	"21513"	"21513"	"2"	"legacy"	"1024"	"2"	"48000"	"-16"	"experiment"	"53"	"odd"	"legacy"	NA	NA	"168658"	NA	NA	NA	NA	NA	"1473"	"165978"	"1473"	NA	NA	"1477"	"1477"	"5664"	"5664"	"5648"	"144464"	"168658"	NA	NA	NA	NA	NA	"144463"	"lineup1"	"0"	"0"	"0"	"no"	"no"	"1366"
"7"	""	"undefined"	"undefined"	"undefined"	"undefined"	"white"	"no"	"xpyriment"	"legacy"	"legacy"	"0"	"no"	"relative"	"undefined"	"undefined"	"0"	"5"	"5"	"0"	"0"	"0"	"5"	"0"	"0"	"5"	"0"	"0"	"0"	"0"	"0"	"0"	"0"	"0"	"5"	"7"	"0"	"0"	"0"	"0"	"0"	"5"	"191"	"694"	"02/14/18 14:44:15"	"Executes Python code"	"yes"	""	"lineup_liveWOMEN_W.osexp"	"C:\Users\Laptop3\Desktop\Wednesday 1402"	"no"	"mono"	"no"	"24"	"no"	"black"	"no"	"Continue"	"yes"	"768"	"No"	"No"	"no"	"No"	"legacy"	"5"	"0"	"5"	"0"	"C:/Users/Laptop3/Desktop/Wednesday 1402/subject-53.csv"	"6"	"xpyriment"	"Jazzy James"	"3.1.4"	"0"	"1"	"1"	"21513"	"21513"	"2"	"legacy"	"1024"	"2"	"48000"	"-16"	"experiment"	"53"	"odd"	"legacy"	"172680"	NA	"168658"	"172680"	NA	"184826"	NA	NA	"1473"	"165978"	"1473"	NA	NA	"1477"	"1477"	"5664"	"5664"	"5648"	"144464"	"184826"	"168692"	NA	"177426"	NA	NA	"144463"	"lineup1"	"0"	"0"	"0"	"no"	"no"	"1366"
"8"	""	"undefined"	"undefined"	"undefined"	"undefined"	"white"	"no"	"xpyriment"	"legacy"	"legacy"	"0"	"no"	"relative"	"undefined"	"undefined"	"0"	"5"	"5"	"0"	"0"	"0"	"5"	"0"	"0"	"5"	"0"	"0"	"0"	"0"	"0"	"0"	"0"	"0"	"5"	"7"	"0"	"0"	"0"	"0"	"0"	"5"	"191"	"694"	"02/14/18 14:44:15"	"Executes Python code"	"yes"	""	"lineup_liveWOMEN_W.osexp"	"C:\Users\Laptop3\Desktop\Wednesday 1402"	"no"	"mono"	"no"	"24"	"no"	"black"	"no"	"Click to end"	"yes"	"768"	"No"	"No"	"no"	"No"	"legacy"	"5"	"0"	"5"	"0"	"C:/Users/Laptop3/Desktop/Wednesday 1402/subject-53.csv"	"6"	"xpyriment"	"Jazzy James"	"3.1.4"	"0"	"1"	"1"	"21513"	"21513"	"2"	"legacy"	"1024"	"2"	"48000"	"-16"	"experiment"	"53"	"odd"	"legacy"	"172680"	NA	"168658"	"172680"	NA	"184826"	NA	"184858"	"1473"	"165978"	"1473"	NA	NA	"1477"	"1477"	"5664"	"5664"	"5648"	"144464"	"186585"	"168692"	NA	"177426"	NA	NA	"144463"	"lineup1"	"0"	"0"	"0"	"no"	"no"	"1366"
"9"	""	"undefined"	"undefined"	"undefined"	"undefined"	"white"	"no"	"xpyriment"	"legacy"	"legacy"	"0"	"no"	"relative"	"undefined"	"undefined"	"0"	"0"	"0"	"0"	"0"	"0"	"0"	"0"	"0"	"0"	"0"	"0"	"0"	"0"	"0"	"0"	"0"	"0"	"0"	"2"	"0"	"0"	"0"	"0"	"0"	"0"	"661"	"663"	"02/14/18 14:49:19"	"Executes Python code"	"yes"	""	"lineup_liveWOMEN_W.osexp"	"C:\Users\Laptop3\Desktop\Wednesday 1402"	"no"	"mono"	"no"	"24"	"no"	"black"	"no"	"Continue"	"yes"	"768"	"No"	"no"	"no"	"no"	"legacy"	"0"	"0"	"0"	"0"	"C:/Users/Laptop3/Desktop/Wednesday 1402/subject-54.csv"	"1"	"xpyriment"	"Jazzy James"	"3.1.4"	"0"	"1"	"1"	"11219"	"11219"	"2"	"legacy"	"1024"	"2"	"48000"	"-16"	"experiment"	"54"	"even"	"legacy"	NA	NA	"28863"	NA	NA	NA	NA	NA	"1455"	"26244"	"1455"	NA	NA	"1459"	"1459"	"14966"	"14966"	"14949"	"15025"	"28863"	NA	NA	NA	NA	NA	"15024"	"lineup1"	"0"	"0"	"0"	"no"	"no"	"1366"
"10"	""	"undefined"	"undefined"	"undefined"	"undefined"	"white"	"no"	"xpyriment"	"legacy"	"legacy"	"0"	"no"	"relative"	"undefined"	"undefined"	"0"	"1"	"1"	"0"	"0"	"0"	"1"	"0"	"0"	"1"	"0"	"0"	"0"	"0"	"0"	"0"	"0"	"0"	"1"	"3"	"0"	"0"	"0"	"0"	"0"	"1"	"180"	"619"	"02/14/18 14:49:19"	"Executes Python code"	"yes"	""	"lineup_liveWOMEN_W.osexp"	"C:\Users\Laptop3\Desktop\Wednesday 1402"	"no"	"mono"	"no"	"24"	"no"	"black"	"no"	"Continue"	"yes"	"768"	"No"	"no"	"no"	"no"	"legacy"	"1"	"0"	"1"	"0"	"C:/Users/Laptop3/Desktop/Wednesday 1402/subject-54.csv"	"2"	"xpyriment"	"Jazzy James"	"3.1.4"	"0"	"1"	"1"	"9380"	"9380"	"2"	"legacy"	"1024"	"2"	"48000"	"-16"	"experiment"	"54"	"even"	"legacy"	NA	NA	"41052"	NA	NA	NA	NA	NA	"1455"	"38341"	"1455"	NA	NA	"1459"	"1459"	"14966"	"14966"	"14949"	"28960"	"41052"	NA	NA	NA	NA	NA	"28959"	"lineup1"	"0"	"0"	"0"	"no"	"no"	"1366"
"11"	""	"undefined"	"undefined"	"undefined"	"undefined"	"white"	"no"	"xpyriment"	"legacy"	"legacy"	"0"	"no"	"relative"	"undefined"	"undefined"	"0"	"2"	"2"	"0"	"0"	"0"	"2"	"0"	"0"	"2"	"0"	"0"	"0"	"0"	"0"	"0"	"0"	"0"	"2"	"4"	"0"	"0"	"0"	"0"	"0"	"2"	"167"	"657"	"02/14/18 14:49:19"	"Executes Python code"	"yes"	""	"lineup_liveWOMEN_W.osexp"	"C:\Users\Laptop3\Desktop\Wednesday 1402"	"no"	"mono"	"no"	"24"	"no"	"black"	"no"	"Continue"	"yes"	"768"	"No"	"no"	"no"	"no"	"legacy"	"2"	"0"	"2"	"0"	"C:/Users/Laptop3/Desktop/Wednesday 1402/subject-54.csv"	"3"	"xpyriment"	"Jazzy James"	"3.1.4"	"0"	"1"	"1"	"8521"	"8521"	"2"	"legacy"	"1024"	"2"	"48000"	"-16"	"experiment"	"54"	"even"	"legacy"	NA	NA	"52380"	NA	NA	NA	NA	NA	"1455"	"49669"	"1455"	NA	NA	"1459"	"1459"	"14966"	"14966"	"14949"	"41147"	"52381"	NA	NA	NA	NA	NA	"41146"	"lineup1"	"0"	"0"	"0"	"no"	"no"	"1366"
"12"	""	"undefined"	"undefined"	"undefined"	"undefined"	"white"	"no"	"xpyriment"	"legacy"	"legacy"	"0"	"no"	"relative"	"undefined"	"undefined"	"0"	"3"	"3"	"0"	"0"	"0"	"3"	"0"	"0"	"3"	"0"	"0"	"0"	"0"	"0"	"0"	"0"	"0"	"3"	"5"	"0"	"0"	"0"	"0"	"0"	"3"	"385"	"533"	"02/14/18 14:49:19"	"Executes Python code"	"yes"	""	"lineup_liveWOMEN_W.osexp"	"C:\Users\Laptop3\Desktop\Wednesday 1402"	"no"	"mono"	"no"	"24"	"no"	"black"	"no"	"Continue"	"yes"	"768"	"No"	"no"	"no"	"no"	"legacy"	"3"	"0"	"3"	"0"	"C:/Users/Laptop3/Desktop/Wednesday 1402/subject-54.csv"	"4"	"xpyriment"	"Jazzy James"	"3.1.4"	"0"	"1"	"1"	"8713"	"8713"	"2"	"legacy"	"1024"	"2"	"48000"	"-16"	"experiment"	"54"	"even"	"legacy"	NA	NA	"65321"	NA	NA	NA	NA	NA	"1455"	"61188"	"1455"	NA	NA	"1459"	"1459"	"14966"	"14966"	"14949"	"52475"	"65321"	NA	NA	NA	NA	NA	"52474"	"lineup1"	"0"	"0"	"0"	"no"	"no"	"1366"
"13"	""	"undefined"	"undefined"	"undefined"	"undefined"	"white"	"no"	"xpyriment"	"legacy"	"legacy"	"0"	"no"	"relative"	"undefined"	"undefined"	"0"	"4"	"4"	"0"	"0"	"0"	"4"	"0"	"0"	"4"	"0"	"0"	"0"	"0"	"0"	"0"	"0"	"0"	"4"	"6"	"0"	"0"	"0"	"0"	"0"	"4"	"275"	"582"	"02/14/18 14:49:19"	"Executes Python code"	"yes"	""	"lineup_liveWOMEN_W.osexp"	"C:\Users\Laptop3\Desktop\Wednesday 1402"	"no"	"mono"	"no"	"24"	"no"	"black"	"no"	"Continue"	"yes"	"768"	"No"	"no"	"no"	"no"	"legacy"	"4"	"0"	"4"	"0"	"C:/Users/Laptop3/Desktop/Wednesday 1402/subject-54.csv"	"5"	"xpyriment"	"Jazzy James"	"3.1.4"	"0"	"1"	"1"	"6147"	"6147"	"2"	"legacy"	"1024"	"2"	"48000"	"-16"	"experiment"	"54"	"even"	"legacy"	NA	NA	"73741"	NA	NA	NA	NA	NA	"1455"	"71564"	"1455"	NA	NA	"1459"	"1459"	"14966"	"14966"	"14949"	"65417"	"73742"	NA	NA	NA	NA	NA	"65416"	"lineup1"	"0"	"0"	"0"	"no"	"no"	"1366"
"14"	""	"undefined"	"undefined"	"undefined"	"undefined"	"white"	"no"	"xpyriment"	"legacy"	"legacy"	"0"	"no"	"relative"	"undefined"	"undefined"	"0"	"5"	"5"	"0"	"0"	"0"	"5"	"0"	"0"	"5"	"0"	"0"	"0"	"0"	"0"	"0"	"0"	"0"	"5"	"7"	"0"	"0"	"0"	"0"	"0"	"5"	"295"	"551"	"02/14/18 14:49:19"	"Executes Python code"	"yes"	""	"lineup_liveWOMEN_W.osexp"	"C:\Users\Laptop3\Desktop\Wednesday 1402"	"no"	"mono"	"no"	"24"	"no"	"black"	"no"	"Continue"	"yes"	"768"	"No"	"no"	"no"	"no"	"legacy"	"5"	"0"	"5"	"0"	"C:/Users/Laptop3/Desktop/Wednesday 1402/subject-54.csv"	"6"	"xpyriment"	"Jazzy James"	"3.1.4"	"0"	"1"	"1"	"6054"	"6054"	"2"	"legacy"	"1024"	"2"	"48000"	"-16"	"experiment"	"54"	"even"	"legacy"	NA	NA	"81855"	NA	NA	NA	NA	NA	"1455"	"79892"	"1455"	NA	NA	"1459"	"1459"	"14966"	"14966"	"14949"	"73837"	"81855"	NA	NA	NA	NA	NA	"73836"	"lineup1"	"0"	"0"	"0"	"no"	"no"	"1366"
"15"	""	"undefined"	"undefined"	"undefined"	"undefined"	"white"	"no"	"xpyriment"	"legacy"	"legacy"	"0"	"no"	"relative"	"undefined"	"undefined"	"0"	"5"	"5"	"0"	"0"	"0"	"5"	"0"	"0"	"5"	"0"	"0"	"0"	"0"	"0"	"0"	"0"	"0"	"5"	"7"	"0"	"0"	"0"	"0"	"0"	"5"	"295"	"551"	"02/14/18 14:49:19"	"Executes Python code"	"yes"	""	"lineup_liveWOMEN_W.osexp"	"C:\Users\Laptop3\Desktop\Wednesday 1402"	"no"	"mono"	"no"	"24"	"no"	"black"	"no"	"Continue"	"yes"	"768"	"No"	"No"	"no"	"No"	"legacy"	"5"	"0"	"5"	"0"	"C:/Users/Laptop3/Desktop/Wednesday 1402/subject-54.csv"	"6"	"xpyriment"	"Jazzy James"	"3.1.4"	"0"	"1"	"1"	"6054"	"6054"	"2"	"legacy"	"1024"	"2"	"48000"	"-16"	"experiment"	"54"	"even"	"legacy"	"85175"	NA	"81855"	"85175"	NA	"101413"	NA	NA	"1455"	"79892"	"1455"	NA	NA	"1459"	"1459"	"14966"	"14966"	"14949"	"73837"	"101413"	"81889"	NA	"89476"	NA	NA	"73836"	"lineup1"	"0"	"0"	"0"	"no"	"no"	"1366"
"16"	""	"undefined"	"undefined"	"undefined"	"undefined"	"white"	"no"	"xpyriment"	"legacy"	"legacy"	"0"	"no"	"relative"	"undefined"	"undefined"	"0"	"5"	"5"	"0"	"0"	"0"	"5"	"0"	"0"	"5"	"0"	"0"	"0"	"0"	"0"	"0"	"0"	"0"	"5"	"7"	"0"	"0"	"0"	"0"	"0"	"5"	"295"	"551"	"02/14/18 14:49:19"	"Executes Python code"	"yes"	""	"lineup_liveWOMEN_W.osexp"	"C:\Users\Laptop3\Desktop\Wednesday 1402"	"no"	"mono"	"no"	"24"	"no"	"black"	"no"	"Click to end"	"yes"	"768"	"No"	"No"	"no"	"No"	"legacy"	"5"	"0"	"5"	"0"	"C:/Users/Laptop3/Desktop/Wednesday 1402/subject-54.csv"	"6"	"xpyriment"	"Jazzy James"	"3.1.4"	"0"	"1"	"1"	"6054"	"6054"	"2"	"legacy"	"1024"	"2"	"48000"	"-16"	"experiment"	"54"	"even"	"legacy"	"85175"	NA	"81855"	"85175"	NA	"101413"	NA	"101444"	"1455"	"79892"	"1455"	NA	NA	"1459"	"1459"	"14966"	"14966"	"14949"	"73837"	"102694"	"81889"	NA	"89476"	NA	NA	"73836"	"lineup1"	"0"	"0"	"0"	"no"	"no"	"1366"
"17"	""	"undefined"	"undefined"	"undefined"	"undefined"	"white"	"no"	"xpyriment"	"legacy"	"legacy"	"0"	"no"	"relative"	"undefined"	"undefined"	"0"	"0"	"0"	"0"	"0"	"0"	"0"	"0"	"0"	"0"	"0"	"0"	"0"	"0"	"0"	"0"	"0"	"0"	"0"	"2"	"0"	"0"	"0"	"0"	"0"	"0"	"724"	"570"	"02/14/18 14:59:42"	"Executes Python code"	"yes"	""	"lineup_liveWOMEN_W.osexp"	"C:\Users\Laptop3\Desktop\Wednesday 1402"	"no"	"mono"	"no"	"24"	"no"	"black"	"no"	"Continue"	"yes"	"768"	"No"	"no"	"no"	"no"	"legacy"	"0"	"0"	"0"	"0"	"C:/Users/Laptop3/Desktop/Wednesday 1402/subject-55.csv"	"1"	"xpyriment"	"Jazzy James"	"3.1.4"	"0"	"1"	"1"	"10536"	"10536"	"2"	"legacy"	"1024"	"2"	"48000"	"-16"	"experiment"	"55"	"odd"	"legacy"	NA	NA	"19752"	NA	NA	NA	NA	NA	"1468"	"17362"	"1468"	NA	NA	"1472"	"1472"	"6768"	"6768"	"6752"	"6826"	"19752"	NA	NA	NA	NA	NA	"6825"	"lineup1"	"0"	"0"	"0"	"no"	"no"	"1366"
"18"	""	"undefined"	"undefined"	"undefined"	"undefined"	"white"	"no"	"xpyriment"	"legacy"	"legacy"	"0"	"no"	"relative"	"undefined"	"undefined"	"0"	"1"	"1"	"0"	"0"	"0"	"1"	"0"	"0"	"1"	"0"	"0"	"0"	"0"	"0"	"0"	"0"	"0"	"1"	"3"	"0"	"0"	"0"	"0"	"0"	"1"	"253"	"470"	"02/14/18 14:59:42"	"Executes Python code"	"yes"	""	"lineup_liveWOMEN_W.osexp"	"C:\Users\Laptop3\Desktop\Wednesday 1402"	"no"	"mono"	"no"	"24"	"no"	"black"	"no"	"Continue"	"yes"	"768"	"No"	"no"	"no"	"no"	"legacy"	"1"	"0"	"1"	"0"	"C:/Users/Laptop3/Desktop/Wednesday 1402/subject-55.csv"	"2"	"xpyriment"	"Jazzy James"	"3.1.4"	"0"	"1"	"1"	"7225"	"7225"	"2"	"legacy"	"1024"	"2"	"48000"	"-16"	"experiment"	"55"	"odd"	"legacy"	NA	NA	"29348"	NA	NA	NA	NA	NA	"1468"	"27075"	"1468"	NA	NA	"1472"	"1472"	"6768"	"6768"	"6752"	"19849"	"29348"	NA	NA	NA	NA	NA	"19848"	"lineup1"	"0"	"0"	"0"	"no"	"no"	"1366"
"19"	""	"undefined"	"undefined"	"undefined"	"undefined"	"white"	"no"	"xpyriment"	"legacy"	"legacy"	"0"	"no"	"relative"	"undefined"	"undefined"	"0"	"2"	"2"	"0"	"0"	"0"	"2"	"0"	"0"	"2"	"0"	"0"	"0"	"0"	"0"	"0"	"0"	"0"	"2"	"4"	"0"	"0"	"0"	"0"	"0"	"2"	"535"	"702"	"02/14/18 14:59:42"	"Executes Python code"	"yes"	""	"lineup_liveWOMEN_W.osexp"	"C:\Users\Laptop3\Desktop\Wednesday 1402"	"no"	"mono"	"no"	"24"	"no"	"black"	"no"	"Continue"	"yes"	"768"	"No"	"no"	"no"	"no"	"legacy"	"2"	"0"	"2"	"0"	"C:/Users/Laptop3/Desktop/Wednesday 1402/subject-55.csv"	"3"	"xpyriment"	"Jazzy James"	"3.1.4"	"0"	"1"	"1"	"6903"	"6903"	"2"	"legacy"	"1024"	"2"	"48000"	"-16"	"experiment"	"55"	"odd"	"legacy"	NA	NA	"39495"	NA	NA	NA	NA	NA	"1468"	"36346"	"1468"	NA	NA	"1472"	"1472"	"6768"	"6768"	"6752"	"29443"	"39495"	NA	NA	NA	NA	NA	"29442"	"lineup1"	"0"	"0"	"0"	"no"	"no"	"1366"
"20"	""	"undefined"	"undefined"	"undefined"	"undefined"	"white"	"no"	"xpyriment"	"legacy"	"legacy"	"0"	"no"	"relative"	"undefined"	"undefined"	"0"	"3"	"3"	"0"	"0"	"0"	"3"	"0"	"0"	"3"	"0"	"0"	"0"	"0"	"0"	"0"	"0"	"0"	"3"	"5"	"0"	"0"	"0"	"0"	"0"	"3"	"464"	"731"	"02/14/18 14:59:42"	"Executes Python code"	"yes"	""	"lineup_liveWOMEN_W.osexp"	"C:\Users\Laptop3\Desktop\Wednesday 1402"	"no"	"mono"	"no"	"24"	"no"	"black"	"no"	"Continue"	"yes"	"768"	"No"	"no"	"no"	"no"	"legacy"	"3"	"0"	"3"	"0"	"C:/Users/Laptop3/Desktop/Wednesday 1402/subject-55.csv"	"4"	"xpyriment"	"Jazzy James"	"3.1.4"	"0"	"1"	"1"	"12909"	"12909"	"2"	"legacy"	"1024"	"2"	"48000"	"-16"	"experiment"	"55"	"odd"	"legacy"	NA	NA	"55555"	NA	NA	NA	NA	NA	"1468"	"52498"	"1468"	NA	NA	"1472"	"1472"	"6768"	"6768"	"6752"	"39589"	"55555"	NA	NA	NA	NA	NA	"39588"	"lineup1"	"0"	"0"	"0"	"no"	"no"	"1366"
"21"	""	"undefined"	"undefined"	"undefined"	"undefined"	"white"	"no"	"xpyriment"	"legacy"	"legacy"	"0"	"no"	"relative"	"undefined"	"undefined"	"0"	"4"	"4"	"0"	"0"	"0"	"4"	"0"	"0"	"4"	"0"	"0"	"0"	"0"	"0"	"0"	"0"	"0"	"4"	"6"	"0"	"0"	"0"	"0"	"0"	"4"	"356"	"650"	"02/14/18 14:59:42"	"Executes Python code"	"yes"	""	"lineup_liveWOMEN_W.osexp"	"C:\Users\Laptop3\Desktop\Wednesday 1402"	"no"	"mono"	"no"	"24"	"no"	"black"	"no"	"Continue"	"yes"	"768"	"No"	"no"	"no"	"no"	"legacy"	"4"	"0"	"4"	"0"	"C:/Users/Laptop3/Desktop/Wednesday 1402/subject-55.csv"	"5"	"xpyriment"	"Jazzy James"	"3.1.4"	"0"	"1"	"1"	"10447"	"10447"	"2"	"legacy"	"1024"	"2"	"48000"	"-16"	"experiment"	"55"	"odd"	"legacy"	NA	NA	"68165"	NA	NA	NA	NA	NA	"1468"	"66098"	"1468"	NA	NA	"1472"	"1472"	"6768"	"6768"	"6752"	"55651"	"68165"	NA	NA	NA	NA	NA	"55649"	"lineup1"	"0"	"0"	"0"	"no"	"no"	"1366"
"22"	""	"undefined"	"undefined"	"undefined"	"undefined"	"white"	"no"	"xpyriment"	"legacy"	"legacy"	"0"	"no"	"relative"	"undefined"	"undefined"	"0"	"5"	"5"	"0"	"0"	"0"	"5"	"0"	"0"	"5"	"0"	"0"	"0"	"0"	"0"	"0"	"0"	"0"	"5"	"7"	"0"	"0"	"0"	"0"	"0"	"5"	"389"	"495"	"02/14/18 14:59:42"	"Executes Python code"	"yes"	""	"lineup_liveWOMEN_W.osexp"	"C:\Users\Laptop3\Desktop\Wednesday 1402"	"no"	"mono"	"no"	"24"	"no"	"black"	"no"	"Continue"	"yes"	"768"	"No"	"no"	"no"	"no"	"legacy"	"5"	"0"	"5"	"0"	"C:/Users/Laptop3/Desktop/Wednesday 1402/subject-55.csv"	"6"	"xpyriment"	"Jazzy James"	"3.1.4"	"0"	"1"	"1"	"6873"	"6873"	"2"	"legacy"	"1024"	"2"	"48000"	"-16"	"experiment"	"55"	"odd"	"legacy"	NA	NA	"77415"	NA	NA	NA	NA	NA	"1468"	"75131"	"1468"	NA	NA	"1472"	"1472"	"6768"	"6768"	"6752"	"68257"	"77415"	NA	NA	NA	NA	NA	"68256"	"lineup1"	"0"	"0"	"0"	"no"	"no"	"1366"
"23"	""	"undefined"	"undefined"	"undefined"	"undefined"	"white"	"no"	"xpyriment"	"legacy"	"legacy"	"0"	"no"	"relative"	"undefined"	"undefined"	"1"	"6"	"6"	"1"	"1"	"1"	"6"	"0"	"0"	"6"	"0"	"1"	"1"	"0"	"0"	"1"	"1"	"0"	"6"	"9"	"1"	"1"	"1"	"1"	"1"	"6"	"431"	"711"	"02/14/18 14:59:42"	"Executes Python code"	"yes"	""	"lineup_liveWOMEN_W.osexp"	"C:\Users\Laptop3\Desktop\Wednesday 1402"	"no"	"mono"	"no"	"24"	"no"	"black"	"no"	"Continue"	"yes"	"768"	"No"	"no"	"no"	"no"	"legacy"	"0"	"0"	"0"	"0"	"C:/Users/Laptop3/Desktop/Wednesday 1402/subject-55.csv"	"1"	"xpyriment"	"Jazzy James"	"3.1.4"	"0"	"1"	"1"	"13610"	"13610"	"2"	"legacy"	"1024"	"2"	"48000"	"-16"	"experiment"	"55"	"odd"	"legacy"	"101969"	NA	"136233"	"101969"	NA	"108672"	NA	NA	"1468"	"134178"	"1468"	NA	"108672"	"1472"	"1472"	"120508"	"120508"	"6752"	"120567"	"136233"	"77449"	NA	"104173"	"120492"	NA	"120566"	"lineup1"	"0"	"0"	"0"	"no"	"no"	"1366"
"24"	""	"undefined"	"undefined"	"undefined"	"undefined"	"white"	"no"	"xpyriment"	"legacy"	"legacy"	"0"	"no"	"relative"	"undefined"	"undefined"	"1"	"7"	"7"	"1"	"1"	"1"	"7"	"0"	"0"	"7"	"0"	"1"	"1"	"0"	"0"	"1"	"1"	"0"	"7"	"10"	"1"	"1"	"1"	"1"	"1"	"7"	"876"	"540"	"02/14/18 14:59:42"	"Executes Python code"	"yes"	""	"lineup_liveWOMEN_W.osexp"	"C:\Users\Laptop3\Desktop\Wednesday 1402"	"no"	"mono"	"no"	"24"	"no"	"black"	"no"	"Continue"	"yes"	"768"	"No"	"no"	"no"	"no"	"legacy"	"1"	"0"	"1"	"0"	"C:/Users/Laptop3/Desktop/Wednesday 1402/subject-55.csv"	"2"	"xpyriment"	"Jazzy James"	"3.1.4"	"0"	"1"	"1"	"9587"	"9587"	"2"	"legacy"	"1024"	"2"	"48000"	"-16"	"experiment"	"55"	"odd"	"legacy"	"101969"	NA	"147875"	"101969"	NA	"108672"	NA	NA	"1468"	"145922"	"1468"	NA	"108672"	"1472"	"1472"	"120508"	"120508"	"6752"	"136335"	"147875"	"77449"	NA	"104173"	"120492"	NA	"136333"	"lineup1"	"0"	"0"	"0"	"no"	"no"	"1366"
"25"	""	"undefined"	"undefined"	"undefined"	"undefined"	"white"	"no"	"xpyriment"	"legacy"	"legacy"	"0"	"no"	"relative"	"undefined"	"undefined"	"1"	"8"	"8"	"1"	"1"	"1"	"8"	"0"	"0"	"8"	"0"	"1"	"1"	"0"	"0"	"1"	"1"	"0"	"8"	"11"	"1"	"1"	"1"	"1"	"1"	"8"	"541"	"602"	"02/14/18 14:59:42"	"Executes Python code"	"yes"	""	"lineup_liveWOMEN_W.osexp"	"C:\Users\Laptop3\Desktop\Wednesday 1402"	"no"	"mono"	"no"	"24"	"no"	"black"	"no"	"Continue"	"yes"	"768"	"No"	"no"	"no"	"no"	"legacy"	"2"	"0"	"2"	"0"	"C:/Users/Laptop3/Desktop/Wednesday 1402/subject-55.csv"	"3"	"xpyriment"	"Jazzy James"	"3.1.4"	"0"	"1"	"1"	"10216"	"10216"	"2"	"legacy"	"1024"	"2"	"48000"	"-16"	"experiment"	"55"	"odd"	"legacy"	"101969"	NA	"162420"	"101969"	NA	"108672"	NA	NA	"1468"	"158185"	"1468"	NA	"108672"	"1472"	"1472"	"120508"	"120508"	"6752"	"147969"	"162420"	"77449"	NA	"104173"	"120492"	NA	"147968"	"lineup1"	"0"	"0"	"0"	"no"	"no"	"1366"
"26"	""	"undefined"	"undefined"	"undefined"	"undefined"	"white"	"no"	"xpyriment"	"legacy"	"legacy"	"0"	"40"	"relative"	"undefined"	"undefined"	"1"	"9"	"9"	"1"	"1"	"1"	"9"	"0"	"0"	"9"	"0"	"1"	"1"	"0"	"0"	"1"	"1"	"0"	"9"	"12"	"1"	"1"	"1"	"1"	"1"	"9"	"585"	"486"	"02/14/18 14:59:42"	"Executes Python code"	"yes"	""	"lineup_liveWOMEN_W.osexp"	"C:\Users\Laptop3\Desktop\Wednesday 1402"	"no"	"mono"	"no"	"24"	"no"	"black"	"no"	"Continue"	"yes"	"768"	"Yes"	"no"	"no"	"no"	"legacy"	"3"	"0"	"3"	"0"	"C:/Users/Laptop3/Desktop/Wednesday 1402/subject-55.csv"	"4"	"xpyriment"	"Jazzy James"	"3.1.4"	"0"	"1"	"1"	"8336"	"8336"	"2"	"legacy"	"1024"	"2"	"48000"	"-16"	"experiment"	"55"	"odd"	"legacy"	"101969"	"179044"	"173235"	"101969"	NA	"108672"	"173235"	NA	"1468"	"170850"	"1468"	NA	"108672"	"1472"	"1472"	"120508"	"120508"	"6752"	"162513"	"179044"	"77449"	NA	"104173"	"120492"	NA	"162512"	"lineup1"	"0"	"0"	"0"	"no"	"no"	"1366"
"27"	""	"undefined"	"undefined"	"undefined"	"undefined"	"white"	"no"	"xpyriment"	"legacy"	"legacy"	"0"	"no"	"relative"	"undefined"	"undefined"	"1"	"10"	"10"	"1"	"1"	"1"	"10"	"0"	"0"	"10"	"0"	"1"	"1"	"0"	"0"	"1"	"1"	"0"	"10"	"13"	"1"	"1"	"1"	"1"	"1"	"10"	"630"	"635"	"02/14/18 14:59:42"	"Executes Python code"	"yes"	""	"lineup_liveWOMEN_W.osexp"	"C:\Users\Laptop3\Desktop\Wednesday 1402"	"no"	"mono"	"no"	"24"	"no"	"black"	"no"	"Continue"	"yes"	"768"	"No"	"no"	"no"	"no"	"legacy"	"4"	"0"	"4"	"0"	"C:/Users/Laptop3/Desktop/Wednesday 1402/subject-55.csv"	"5"	"xpyriment"	"Jazzy James"	"3.1.4"	"0"	"1"	"1"	"8087"	"8087"	"2"	"legacy"	"1024"	"2"	"48000"	"-16"	"experiment"	"55"	"odd"	"legacy"	"101969"	"179044"	"189753"	"101969"	NA	"108672"	"173235"	NA	"1468"	"187225"	"1468"	NA	"108672"	"1472"	"1472"	"120508"	"120508"	"6752"	"179138"	"189753"	"77449"	NA	"104173"	"120492"	NA	"179137"	"lineup1"	"0"	"0"	"0"	"no"	"no"	"1366"
"28"	""	"undefined"	"undefined"	"undefined"	"undefined"	"white"	"no"	"xpyriment"	"legacy"	"legacy"	"0"	"no"	"relative"	"undefined"	"undefined"	"1"	"11"	"11"	"1"	"1"	"1"	"11"	"0"	"0"	"11"	"0"	"1"	"1"	"0"	"0"	"1"	"1"	"0"	"11"	"14"	"1"	"1"	"1"	"1"	"1"	"11"	"867"	"545"	"02/14/18 14:59:42"	"Executes Python code"	"yes"	""	"lineup_liveWOMEN_W.osexp"	"C:\Users\Laptop3\Desktop\Wednesday 1402"	"no"	"mono"	"no"	"24"	"no"	"black"	"no"	"Continue"	"yes"	"768"	"No"	"no"	"no"	"no"	"legacy"	"5"	"0"	"5"	"0"	"C:/Users/Laptop3/Desktop/Wednesday 1402/subject-55.csv"	"6"	"xpyriment"	"Jazzy James"	"3.1.4"	"0"	"1"	"1"	"6128"	"6128"	"2"	"legacy"	"1024"	"2"	"48000"	"-16"	"experiment"	"55"	"odd"	"legacy"	"101969"	"179044"	"197618"	"101969"	NA	"108672"	"173235"	NA	"1468"	"195978"	"1468"	NA	"108672"	"1472"	"1472"	"120508"	"120508"	"6752"	"189849"	"197618"	"77449"	NA	"104173"	"120492"	NA	"189848"	"lineup1"	"0"	"0"	"0"	"no"	"no"	"1366"
"29"	""	"undefined"	"undefined"	"undefined"	"undefined"	"white"	"no"	"xpyriment"	"legacy"	"legacy"	"0"	"no"	"relative"	"undefined"	"undefined"	"1"	"11"	"11"	"1"	"1"	"1"	"11"	"0"	"0"	"11"	"0"	"1"	"1"	"0"	"0"	"1"	"1"	"0"	"11"	"14"	"1"	"1"	"1"	"1"	"1"	"11"	"867"	"545"	"02/14/18 14:59:42"	"Executes Python code"	"yes"	""	"lineup_liveWOMEN_W.osexp"	"C:\Users\Laptop3\Desktop\Wednesday 1402"	"no"	"mono"	"no"	"24"	"no"	"black"	"no"	"Continue"	"yes"	"768"	"No"	"Yes"	"One"	"No"	"legacy"	"5"	"0"	"5"	"0"	"C:/Users/Laptop3/Desktop/Wednesday 1402/subject-55.csv"	"6"	"xpyriment"	"Jazzy James"	"3.1.4"	"0"	"1"	"1"	"6128"	"6128"	"2"	"legacy"	"1024"	"2"	"48000"	"-16"	"experiment"	"55"	"odd"	"legacy"	"205710"	"179044"	"197618"	"201132"	"205710"	"216752"	"173235"	NA	"1468"	"195978"	"1468"	NA	"108672"	"1472"	"1472"	"120508"	"120508"	"6752"	"189849"	"216752"	"197650"	"201132"	"208655"	"120492"	NA	"189848"	"lineup1"	"0"	"0"	"0"	"no"	"no"	"1366"
"30"	""	"undefined"	"undefined"	"undefined"	"undefined"	"white"	"no"	"xpyriment"	"legacy"	"legacy"	"0"	"no"	"relative"	"undefined"	"undefined"	"1"	"11"	"11"	"1"	"1"	"1"	"11"	"0"	"0"	"11"	"0"	"1"	"1"	"0"	"0"	"1"	"1"	"0"	"11"	"14"	"1"	"1"	"1"	"1"	"1"	"11"	"867"	"545"	"02/14/18 14:59:42"	"Executes Python code"	"yes"	""	"lineup_liveWOMEN_W.osexp"	"C:\Users\Laptop3\Desktop\Wednesday 1402"	"no"	"mono"	"no"	"24"	"no"	"black"	"no"	"Continue"	"yes"	"768"	"No"	"Yes"	"One"	"No"	"legacy"	"5"	"0"	"5"	"0"	"C:/Users/Laptop3/Desktop/Wednesday 1402/subject-55.csv"	"6"	"xpyriment"	"Jazzy James"	"3.1.4"	"0"	"1"	"1"	"6128"	"6128"	"2"	"legacy"	"1024"	"2"	"48000"	"-16"	"experiment"	"55"	"odd"	"legacy"	"205710"	"179044"	"197618"	"201132"	"205710"	"216752"	"173235"	NA	"1468"	"195978"	"1468"	NA	"108672"	"1472"	"1472"	"120508"	"120508"	"6752"	"189849"	"216781"	"197650"	"201132"	"208655"	"120492"	NA	"189848"	"lineup1"	"0"	"0"	"0"	"no"	"no"	"1366"
"31"	""	"undefined"	"undefined"	"undefined"	"undefined"	"white"	"no"	"xpyriment"	"legacy"	"legacy"	"0"	"no"	"relative"	"undefined"	"undefined"	"1"	"11"	"11"	"1"	"1"	"1"	"11"	"0"	"0"	"11"	"0"	"1"	"1"	"0"	"0"	"1"	"1"	"0"	"11"	"14"	"1"	"1"	"1"	"1"	"1"	"11"	"867"	"545"	"02/14/18 14:59:42"	"Executes Python code"	"yes"	""	"lineup_liveWOMEN_W.osexp"	"C:\Users\Laptop3\Desktop\Wednesday 1402"	"no"	"mono"	"no"	"24"	"no"	"black"	"no"	"Click to end"	"yes"	"768"	"No"	"Yes"	"One"	"No"	"legacy"	"5"	"0"	"5"	"0"	"C:/Users/Laptop3/Desktop/Wednesday 1402/subject-55.csv"	"6"	"xpyriment"	"Jazzy James"	"3.1.4"	"0"	"1"	"1"	"6128"	"6128"	"2"	"legacy"	"1024"	"2"	"48000"	"-16"	"experiment"	"55"	"odd"	"legacy"	"205710"	"179044"	"197618"	"201132"	"205710"	"216752"	"173235"	"216809"	"1468"	"195978"	"1468"	NA	"108672"	"1472"	"1472"	"120508"	"120508"	"6752"	"189849"	"217902"	"197650"	"201132"	"208655"	"120492"	NA	"189848"	"lineup1"	"0"	"0"	"0"	"no"	"no"	"1366"
"32"	""	"undefined"	"undefined"	"undefined"	"undefined"	"white"	"no"	"xpyriment"	"legacy"	"legacy"	"0"	"no"	"relative"	"undefined"	"undefined"	"0"	"0"	"0"	"0"	"0"	"0"	"0"	"0"	"0"	"0"	"0"	"0"	"0"	"0"	"0"	"0"	"0"	"0"	"0"	"2"	"0"	"0"	"0"	"0"	"0"	"0"	"735"	"757"	"02/14/18 14:54:29"	"Executes Python code"	"yes"	""	"lineup_liveWOMEN_W.osexp"	"C:\Users\Laptop3\Desktop\Wednesday 1402"	"no"	"mono"	"no"	"24"	"no"	"black"	"no"	"Continue"	"yes"	"768"	"No"	"no"	"no"	"no"	"legacy"	"0"	"0"	"0"	"0"	"C:/Users/Laptop3/Desktop/Wednesday 1402/subject-56.csv"	"1"	"xpyriment"	"Jazzy James"	"3.1.4"	"0"	"1"	"1"	"30818"	"30818"	"2"	"legacy"	"1024"	"2"	"48000"	"-16"	"experiment"	"56"	"even"	"legacy"	NA	NA	"81625"	NA	NA	NA	NA	NA	"1470"	"73554"	"1470"	NA	NA	"1474"	"1474"	"42675"	"42675"	"42659"	"42735"	"81625"	NA	NA	NA	NA	NA	"42734"	"lineup1"	"0"	"0"	"0"	"no"	"no"	"1366"
"33"	""	"undefined"	"undefined"	"undefined"	"undefined"	"white"	"no"	"xpyriment"	"legacy"	"legacy"	"0"	"no"	"relative"	"undefined"	"undefined"	"0"	"1"	"1"	"0"	"0"	"0"	"1"	"0"	"0"	"1"	"0"	"0"	"0"	"0"	"0"	"0"	"0"	"0"	"1"	"3"	"0"	"0"	"0"	"0"	"0"	"1"	"602"	"694"	"02/14/18 14:54:29"	"Executes Python code"	"yes"	""	"lineup_liveWOMEN_W.osexp"	"C:\Users\Laptop3\Desktop\Wednesday 1402"	"no"	"mono"	"no"	"24"	"no"	"black"	"no"	"Continue"	"yes"	"768"	"No"	"no"	"no"	"no"	"legacy"	"1"	"0"	"1"	"0"	"C:/Users/Laptop3/Desktop/Wednesday 1402/subject-56.csv"	"2"	"xpyriment"	"Jazzy James"	"3.1.4"	"0"	"1"	"1"	"17671"	"17671"	"2"	"legacy"	"1024"	"2"	"48000"	"-16"	"experiment"	"56"	"even"	"legacy"	NA	NA	"102534"	NA	NA	NA	NA	NA	"1470"	"99394"	"1470"	NA	NA	"1474"	"1474"	"42675"	"42675"	"42659"	"81723"	"102534"	NA	NA	NA	NA	NA	"81722"	"lineup1"	"0"	"0"	"0"	"no"	"no"	"1366"
"34"	""	"undefined"	"undefined"	"undefined"	"undefined"	"white"	"no"	"xpyriment"	"legacy"	"legacy"	"0"	"60"	"relative"	"undefined"	"undefined"	"0"	"2"	"2"	"0"	"0"	"0"	"2"	"0"	"0"	"2"	"0"	"0"	"0"	"0"	"0"	"0"	"0"	"0"	"2"	"4"	"0"	"0"	"0"	"0"	"0"	"2"	"433"	"712"	"02/14/18 14:54:29"	"Executes Python code"	"yes"	""	"lineup_liveWOMEN_W.osexp"	"C:\Users\Laptop3\Desktop\Wednesday 1402"	"no"	"mono"	"no"	"24"	"no"	"black"	"no"	"Continue"	"yes"	"768"	"Yes"	"no"	"no"	"no"	"legacy"	"2"	"0"	"2"	"0"	"C:/Users/Laptop3/Desktop/Wednesday 1402/subject-56.csv"	"3"	"xpyriment"	"Jazzy James"	"3.1.4"	"0"	"1"	"1"	"20579"	"20579"	"2"	"legacy"	"1024"	"2"	"48000"	"-16"	"experiment"	"56"	"even"	"legacy"	NA	"132200"	"126024"	NA	NA	NA	"126024"	NA	"1470"	"123209"	"1470"	NA	NA	"1474"	"1474"	"42675"	"42675"	"42659"	"102630"	"132200"	NA	NA	NA	NA	NA	"102629"	"lineup1"	"0"	"0"	"0"	"no"	"no"	"1366"
"35"	""	"undefined"	"undefined"	"undefined"	"undefined"	"white"	"no"	"xpyriment"	"legacy"	"legacy"	"0"	"no"	"relative"	"undefined"	"undefined"	"0"	"3"	"3"	"0"	"0"	"0"	"3"	"0"	"0"	"3"	"0"	"0"	"0"	"0"	"0"	"0"	"0"	"0"	"3"	"5"	"0"	"0"	"0"	"0"	"0"	"3"	"703"	"630"	"02/14/18 14:54:29"	"Executes Python code"	"yes"	""	"lineup_liveWOMEN_W.osexp"	"C:\Users\Laptop3\Desktop\Wednesday 1402"	"no"	"mono"	"no"	"24"	"no"	"black"	"no"	"Continue"	"yes"	"768"	"No"	"no"	"no"	"no"	"legacy"	"3"	"0"	"3"	"0"	"C:/Users/Laptop3/Desktop/Wednesday 1402/subject-56.csv"	"4"	"xpyriment"	"Jazzy James"	"3.1.4"	"0"	"1"	"1"	"11138"	"11138"	"2"	"legacy"	"1024"	"2"	"48000"	"-16"	"experiment"	"56"	"even"	"legacy"	NA	"132200"	"145811"	NA	NA	NA	"126024"	NA	"1470"	"143433"	"1470"	NA	NA	"1474"	"1474"	"42675"	"42675"	"42659"	"132295"	"145811"	NA	NA	NA	NA	NA	"132294"	"lineup1"	"0"	"0"	"0"	"no"	"no"	"1366"
"36"	""	"undefined"	"undefined"	"undefined"	"undefined"	"white"	"no"	"xpyriment"	"legacy"	"legacy"	"0"	"no"	"relative"	"undefined"	"undefined"	"0"	"4"	"4"	"0"	"0"	"0"	"4"	"0"	"0"	"4"	"0"	"0"	"0"	"0"	"0"	"0"	"0"	"0"	"4"	"6"	"0"	"0"	"0"	"0"	"0"	"4"	"509"	"629"	"02/14/18 14:54:29"	"Executes Python code"	"yes"	""	"lineup_liveWOMEN_W.osexp"	"C:\Users\Laptop3\Desktop\Wednesday 1402"	"no"	"mono"	"no"	"24"	"no"	"black"	"no"	"Continue"	"yes"	"768"	"No"	"no"	"no"	"no"	"legacy"	"4"	"0"	"4"	"0"	"C:/Users/Laptop3/Desktop/Wednesday 1402/subject-56.csv"	"5"	"xpyriment"	"Jazzy James"	"3.1.4"	"0"	"1"	"1"	"21517"	"21517"	"2"	"legacy"	"1024"	"2"	"48000"	"-16"	"experiment"	"56"	"even"	"legacy"	NA	"132200"	"169379"	NA	NA	NA	"126024"	NA	"1470"	"167425"	"1470"	NA	NA	"1474"	"1474"	"42675"	"42675"	"42659"	"145907"	"169379"	NA	NA	NA	NA	NA	"145906"	"lineup1"	"0"	"0"	"0"	"no"	"no"	"1366"
"37"	""	"undefined"	"undefined"	"undefined"	"undefined"	"white"	"no"	"xpyriment"	"legacy"	"legacy"	"0"	"no"	"relative"	"undefined"	"undefined"	"0"	"5"	"5"	"0"	"0"	"0"	"5"	"0"	"0"	"5"	"0"	"0"	"0"	"0"	"0"	"0"	"0"	"0"	"5"	"7"	"0"	"0"	"0"	"0"	"0"	"5"	"647"	"686"	"02/14/18 14:54:29"	"Executes Python code"	"yes"	""	"lineup_liveWOMEN_W.osexp"	"C:\Users\Laptop3\Desktop\Wednesday 1402"	"no"	"mono"	"no"	"24"	"no"	"black"	"no"	"Continue"	"yes"	"768"	"No"	"no"	"no"	"no"	"legacy"	"5"	"0"	"5"	"0"	"C:/Users/Laptop3/Desktop/Wednesday 1402/subject-56.csv"	"6"	"xpyriment"	"Jazzy James"	"3.1.4"	"0"	"1"	"1"	"11855"	"11855"	"2"	"legacy"	"1024"	"2"	"48000"	"-16"	"experiment"	"56"	"even"	"legacy"	NA	"132200"	"183400"	NA	NA	NA	"126024"	NA	"1470"	"181329"	"1470"	NA	NA	"1474"	"1474"	"42675"	"42675"	"42659"	"169473"	"183400"	NA	NA	NA	NA	NA	"169472"	"lineup1"	"0"	"0"	"0"	"no"	"no"	"1366"
"38"	""	"undefined"	"undefined"	"undefined"	"undefined"	"white"	"no"	"xpyriment"	"legacy"	"legacy"	"0"	"no"	"relative"	"undefined"	"undefined"	"0"	"5"	"5"	"0"	"0"	"0"	"5"	"0"	"0"	"5"	"0"	"0"	"0"	"0"	"0"	"0"	"0"	"0"	"5"	"7"	"0"	"0"	"0"	"0"	"0"	"5"	"647"	"686"	"02/14/18 14:54:29"	"Executes Python code"	"yes"	""	"lineup_liveWOMEN_W.osexp"	"C:\Users\Laptop3\Desktop\Wednesday 1402"	"no"	"mono"	"no"	"24"	"no"	"black"	"no"	"Continue"	"yes"	"768"	"No"	"Yes"	"One"	"No"	"legacy"	"5"	"0"	"5"	"0"	"C:/Users/Laptop3/Desktop/Wednesday 1402/subject-56.csv"	"6"	"xpyriment"	"Jazzy James"	"3.1.4"	"0"	"1"	"1"	"11855"	"11855"	"2"	"legacy"	"1024"	"2"	"48000"	"-16"	"experiment"	"56"	"even"	"legacy"	"193699"	"132200"	"183400"	"188000"	"193699"	"206668"	"126024"	NA	"1470"	"181329"	"1470"	NA	NA	"1474"	"1474"	"42675"	"42675"	"42659"	"169473"	"206668"	"183433"	"188001"	"197902"	NA	NA	"169472"	"lineup1"	"0"	"0"	"0"	"no"	"no"	"1366"
"39"	""	"undefined"	"undefined"	"undefined"	"undefined"	"white"	"no"	"xpyriment"	"legacy"	"legacy"	"0"	"no"	"relative"	"undefined"	"undefined"	"0"	"5"	"5"	"0"	"0"	"0"	"5"	"0"	"0"	"5"	"0"	"0"	"0"	"0"	"0"	"0"	"0"	"0"	"5"	"7"	"0"	"0"	"0"	"0"	"0"	"5"	"647"	"686"	"02/14/18 14:54:29"	"Executes Python code"	"yes"	""	"lineup_liveWOMEN_W.osexp"	"C:\Users\Laptop3\Desktop\Wednesday 1402"	"no"	"mono"	"no"	"24"	"no"	"black"	"no"	"Click to end"	"yes"	"768"	"No"	"Yes"	"One"	"No"	"legacy"	"5"	"0"	"5"	"0"	"C:/Users/Laptop3/Desktop/Wednesday 1402/subject-56.csv"	"6"	"xpyriment"	"Jazzy James"	"3.1.4"	"0"	"1"	"1"	"11855"	"11855"	"2"	"legacy"	"1024"	"2"	"48000"	"-16"	"experiment"	"56"	"even"	"legacy"	"193699"	"132200"	"183400"	"188000"	"193699"	"206668"	"126024"	"206697"	"1470"	"181329"	"1470"	NA	NA	"1474"	"1474"	"42675"	"42675"	"42659"	"169473"	"207945"	"183433"	"188001"	"197902"	NA	NA	"169472"	"lineup1"	"0"	"0"	"0"	"no"	"no"	"1366"
"40"	""	"undefined"	"undefined"	"undefined"	"undefined"	"white"	"no"	"xpyriment"	"legacy"	"legacy"	"0"	"no"	"relative"	"undefined"	"undefined"	"0"	"0"	"0"	"0"	"0"	"0"	"0"	"0"	"0"	"0"	"0"	"0"	"0"	"0"	"0"	"0"	"0"	"0"	"0"	"2"	"0"	"0"	"0"	"0"	"0"	"0"	"481"	"759"	"02/14/18 15:38:40"	"Executes Python code"	"yes"	""	"lineup_liveWOMEN_W.osexp"	"C:\Users\Laptop3\Desktop\Wednesday 1402"	"no"	"mono"	"no"	"24"	"no"	"black"	"no"	"Continue"	"yes"	"768"	"No"	"no"	"no"	"no"	"legacy"	"0"	"0"	"0"	"0"	"C:/Users/Laptop3/Desktop/Wednesday 1402/subject-58.csv"	"1"	"xpyriment"	"Jazzy James"	"3.1.4"	"0"	"1"	"1"	"37177"	"37177"	"2"	"legacy"	"1024"	"2"	"48000"	"-16"	"experiment"	"58"	"even"	"legacy"	NA	NA	"49579"	NA	NA	NA	NA	NA	"1520"	"43691"	"1520"	NA	NA	"1524"	"1524"	"6455"	"6455"	"6439"	"6514"	"49580"	NA	NA	NA	NA	NA	"6513"	"lineup1"	"0"	"0"	"0"	"no"	"no"	"1366"
"41"	""	"undefined"	"undefined"	"undefined"	"undefined"	"white"	"no"	"xpyriment"	"legacy"	"legacy"	"0"	"no"	"relative"	"undefined"	"undefined"	"0"	"1"	"1"	"0"	"0"	"0"	"1"	"0"	"0"	"1"	"0"	"0"	"0"	"0"	"0"	"0"	"0"	"0"	"1"	"3"	"0"	"0"	"0"	"0"	"0"	"1"	"780"	"614"	"02/14/18 15:38:40"	"Executes Python code"	"yes"	""	"lineup_liveWOMEN_W.osexp"	"C:\Users\Laptop3\Desktop\Wednesday 1402"	"no"	"mono"	"no"	"24"	"no"	"black"	"no"	"Continue"	"yes"	"768"	"No"	"no"	"no"	"no"	"legacy"	"1"	"0"	"1"	"0"	"C:/Users/Laptop3/Desktop/Wednesday 1402/subject-58.csv"	"2"	"xpyriment"	"Jazzy James"	"3.1.4"	"0"	"1"	"1"	"24399"	"24399"	"2"	"legacy"	"1024"	"2"	"48000"	"-16"	"experiment"	"58"	"even"	"legacy"	NA	NA	"77019"	NA	NA	NA	NA	NA	"1520"	"74075"	"1520"	NA	NA	"1524"	"1524"	"6455"	"6455"	"6439"	"49676"	"77019"	NA	NA	NA	NA	NA	"49675"	"lineup1"	"0"	"0"	"0"	"no"	"no"	"1366"
"42"	""	"undefined"	"undefined"	"undefined"	"undefined"	"white"	"no"	"xpyriment"	"legacy"	"legacy"	"0"	"no"	"relative"	"undefined"	"undefined"	"0"	"2"	"2"	"0"	"0"	"0"	"2"	"0"	"0"	"2"	"0"	"0"	"0"	"0"	"0"	"0"	"0"	"0"	"2"	"4"	"0"	"0"	"0"	"0"	"0"	"2"	"425"	"758"	"02/14/18 15:38:40"	"Executes Python code"	"yes"	""	"lineup_liveWOMEN_W.osexp"	"C:\Users\Laptop3\Desktop\Wednesday 1402"	"no"	"mono"	"no"	"24"	"no"	"black"	"no"	"Continue"	"yes"	"768"	"No"	"no"	"no"	"no"	"legacy"	"2"	"0"	"2"	"0"	"C:/Users/Laptop3/Desktop/Wednesday 1402/subject-58.csv"	"3"	"xpyriment"	"Jazzy James"	"3.1.4"	"0"	"1"	"1"	"18201"	"18201"	"2"	"legacy"	"1024"	"2"	"48000"	"-16"	"experiment"	"58"	"even"	"legacy"	NA	NA	"97763"	NA	NA	NA	NA	NA	"1520"	"95315"	"1520"	NA	NA	"1524"	"1524"	"6455"	"6455"	"6439"	"77113"	"97763"	NA	NA	NA	NA	NA	"77112"	"lineup1"	"0"	"0"	"0"	"no"	"no"	"1366"
"43"	""	"undefined"	"undefined"	"undefined"	"undefined"	"white"	"no"	"xpyriment"	"legacy"	"legacy"	"0"	"no"	"relative"	"undefined"	"undefined"	"0"	"3"	"3"	"0"	"0"	"0"	"3"	"0"	"0"	"3"	"0"	"0"	"0"	"0"	"0"	"0"	"0"	"0"	"3"	"5"	"0"	"0"	"0"	"0"	"0"	"3"	"365"	"616"	"02/14/18 15:38:40"	"Executes Python code"	"yes"	""	"lineup_liveWOMEN_W.osexp"	"C:\Users\Laptop3\Desktop\Wednesday 1402"	"no"	"mono"	"no"	"24"	"no"	"black"	"no"	"Continue"	"yes"	"768"	"Not sure"	"no"	"no"	"no"	"legacy"	"3"	"0"	"3"	"0"	"C:/Users/Laptop3/Desktop/Wednesday 1402/subject-58.csv"	"4"	"xpyriment"	"Jazzy James"	"3.1.4"	"0"	"1"	"1"	"21555"	"21555"	"2"	"legacy"	"1024"	"2"	"48000"	"-16"	"experiment"	"58"	"even"	"legacy"	NA	NA	"121684"	NA	NA	NA	NA	NA	"1520"	"119411"	"1520"	NA	NA	"1524"	"1524"	"6455"	"6455"	"6439"	"97856"	"121684"	NA	NA	NA	NA	NA	"97855"	"lineup1"	"0"	"0"	"0"	"no"	"no"	"1366"
"44"	""	"undefined"	"undefined"	"undefined"	"undefined"	"white"	"no"	"xpyriment"	"legacy"	"legacy"	"0"	"no"	"relative"	"undefined"	"undefined"	"0"	"4"	"4"	"0"	"0"	"0"	"4"	"0"	"0"	"4"	"0"	"0"	"0"	"0"	"0"	"0"	"0"	"0"	"4"	"6"	"0"	"0"	"0"	"0"	"0"	"4"	"38"	"703"	"02/14/18 15:38:40"	"Executes Python code"	"yes"	""	"lineup_liveWOMEN_W.osexp"	"C:\Users\Laptop3\Desktop\Wednesday 1402"	"no"	"mono"	"no"	"24"	"no"	"black"	"no"	"Continue"	"yes"	"768"	"No"	"no"	"no"	"no"	"legacy"	"4"	"0"	"4"	"0"	"C:/Users/Laptop3/Desktop/Wednesday 1402/subject-58.csv"	"5"	"xpyriment"	"Jazzy James"	"3.1.4"	"0"	"1"	"1"	"24759"	"24759"	"2"	"legacy"	"1024"	"2"	"48000"	"-16"	"experiment"	"58"	"even"	"legacy"	NA	NA	"148938"	NA	NA	NA	NA	NA	"1520"	"146539"	"1520"	NA	NA	"1524"	"1524"	"6455"	"6455"	"6439"	"121779"	"148938"	NA	NA	NA	NA	NA	"121777"	"lineup1"	"0"	"0"	"0"	"no"	"no"	"1366"
"45"	""	"undefined"	"undefined"	"undefined"	"undefined"	"white"	"no"	"xpyriment"	"legacy"	"legacy"	"0"	"no"	"relative"	"undefined"	"undefined"	"0"	"5"	"5"	"0"	"0"	"0"	"5"	"0"	"0"	"5"	"0"	"0"	"0"	"0"	"0"	"0"	"0"	"0"	"5"	"7"	"0"	"0"	"0"	"0"	"0"	"5"	"311"	"767"	"02/14/18 15:38:40"	"Executes Python code"	"yes"	""	"lineup_liveWOMEN_W.osexp"	"C:\Users\Laptop3\Desktop\Wednesday 1402"	"no"	"mono"	"no"	"24"	"no"	"black"	"no"	"Continue"	"yes"	"768"	"Not sure"	"no"	"no"	"no"	"legacy"	"5"	"0"	"5"	"0"	"C:/Users/Laptop3/Desktop/Wednesday 1402/subject-58.csv"	"6"	"xpyriment"	"Jazzy James"	"3.1.4"	"0"	"1"	"1"	"16857"	"16857"	"2"	"legacy"	"1024"	"2"	"48000"	"-16"	"experiment"	"58"	"even"	"legacy"	NA	NA	"168502"	NA	NA	NA	NA	NA	"1520"	"165890"	"1520"	NA	NA	"1524"	"1524"	"6455"	"6455"	"6439"	"149033"	"168502"	NA	NA	NA	NA	NA	"149032"	"lineup1"	"0"	"0"	"0"	"no"	"no"	"1366"
"46"	""	"undefined"	"undefined"	"undefined"	"undefined"	"white"	"no"	"xpyriment"	"legacy"	"legacy"	"0"	"no"	"relative"	"undefined"	"undefined"	"0"	"5"	"5"	"0"	"0"	"0"	"5"	"0"	"0"	"5"	"0"	"0"	"0"	"0"	"0"	"0"	"0"	"0"	"5"	"7"	"0"	"0"	"0"	"0"	"0"	"5"	"311"	"767"	"02/14/18 15:38:40"	"Executes Python code"	"yes"	""	"lineup_liveWOMEN_W.osexp"	"C:\Users\Laptop3\Desktop\Wednesday 1402"	"no"	"mono"	"no"	"24"	"no"	"black"	"no"	"Continue"	"yes"	"768"	"Not sure"	"No"	"no"	"No"	"legacy"	"5"	"0"	"5"	"0"	"C:/Users/Laptop3/Desktop/Wednesday 1402/subject-58.csv"	"6"	"xpyriment"	"Jazzy James"	"3.1.4"	"0"	"1"	"1"	"16857"	"16857"	"2"	"legacy"	"1024"	"2"	"48000"	"-16"	"experiment"	"58"	"even"	"legacy"	"172921"	NA	"168502"	"172920"	NA	"184870"	NA	NA	"1520"	"165890"	"1520"	NA	NA	"1524"	"1524"	"6455"	"6455"	"6439"	"149033"	"184870"	"168538"	NA	"176808"	NA	NA	"149032"	"lineup1"	"0"	"0"	"0"	"no"	"no"	"1366"
"47"	""	"undefined"	"undefined"	"undefined"	"undefined"	"white"	"no"	"xpyriment"	"legacy"	"legacy"	"0"	"no"	"relative"	"undefined"	"undefined"	"0"	"5"	"5"	"0"	"0"	"0"	"5"	"0"	"0"	"5"	"0"	"0"	"0"	"0"	"0"	"0"	"0"	"0"	"5"	"7"	"0"	"0"	"0"	"0"	"0"	"5"	"311"	"767"	"02/14/18 15:38:40"	"Executes Python code"	"yes"	""	"lineup_liveWOMEN_W.osexp"	"C:\Users\Laptop3\Desktop\Wednesday 1402"	"no"	"mono"	"no"	"24"	"no"	"black"	"no"	"Click to end"	"yes"	"768"	"Not sure"	"No"	"no"	"No"	"legacy"	"5"	"0"	"5"	"0"	"C:/Users/Laptop3/Desktop/Wednesday 1402/subject-58.csv"	"6"	"xpyriment"	"Jazzy James"	"3.1.4"	"0"	"1"	"1"	"16857"	"16857"	"2"	"legacy"	"1024"	"2"	"48000"	"-16"	"experiment"	"58"	"even"	"legacy"	"172921"	NA	"168502"	"172920"	NA	"184870"	NA	"184900"	"1520"	"165890"	"1520"	NA	NA	"1524"	"1524"	"6455"	"6455"	"6439"	"149033"	"185993"	"168538"	NA	"176808"	NA	NA	"149032"	"lineup1"	"0"	"0"	"0"	"no"	"no"	"1366"
"48"	""	"undefined"	"undefined"	"undefined"	"undefined"	"white"	"no"	"xpyriment"	"legacy"	"legacy"	"0"	"no"	"relative"	"undefined"	"undefined"	"0"	"0"	"0"	"0"	"0"	"0"	"0"	"0"	"0"	"0"	"0"	"0"	"0"	"0"	"0"	"0"	"0"	"0"	"0"	"2"	"0"	"0"	"0"	"0"	"0"	"0"	"635"	"767"	"02/14/18 15:27:46"	"Executes Python code"	"yes"	""	"lineup_liveWOMEN_W.osexp"	"C:\Users\Laptop3\Desktop\Wednesday 1402"	"no"	"mono"	"no"	"24"	"no"	"black"	"no"	"Continue"	"yes"	"768"	"No"	"no"	"no"	"no"	"legacy"	"0"	"0"	"0"	"0"	"C:/Users/Laptop3/Desktop/Wednesday 1402/subject-59.csv"	"1"	"xpyriment"	"Jazzy James"	"3.1.4"	"0"	"1"	"1"	"14672"	"14672"	"2"	"legacy"	"1024"	"2"	"48000"	"-16"	"experiment"	"59"	"odd"	"legacy"	NA	NA	"26829"	NA	NA	NA	NA	NA	"1508"	"22908"	"1508"	NA	NA	"1511"	"1511"	"8174"	"8174"	"8157"	"8235"	"26829"	NA	NA	NA	NA	NA	"8234"	"lineup1"	"0"	"0"	"0"	"no"	"no"	"1366"
"49"	""	"undefined"	"undefined"	"undefined"	"undefined"	"white"	"no"	"xpyriment"	"legacy"	"legacy"	"0"	"no"	"relative"	"undefined"	"undefined"	"0"	"1"	"1"	"0"	"0"	"0"	"1"	"0"	"0"	"1"	"0"	"0"	"0"	"0"	"0"	"0"	"0"	"0"	"1"	"3"	"0"	"0"	"0"	"0"	"0"	"1"	"114"	"767"	"02/14/18 15:27:46"	"Executes Python code"	"yes"	""	"lineup_liveWOMEN_W.osexp"	"C:\Users\Laptop3\Desktop\Wednesday 1402"	"no"	"mono"	"no"	"24"	"no"	"black"	"no"	"Continue"	"yes"	"768"	"No"	"no"	"no"	"no"	"legacy"	"1"	"0"	"1"	"0"	"C:/Users/Laptop3/Desktop/Wednesday 1402/subject-59.csv"	"2"	"xpyriment"	"Jazzy James"	"3.1.4"	"0"	"1"	"1"	"8880"	"8880"	"2"	"legacy"	"1024"	"2"	"48000"	"-16"	"experiment"	"59"	"odd"	"legacy"	NA	NA	"38536"	NA	NA	NA	NA	NA	"1508"	"35804"	"1508"	NA	NA	"1511"	"1511"	"8174"	"8174"	"8157"	"26923"	"38536"	NA	NA	NA	NA	NA	"26922"	"lineup1"	"0"	"0"	"0"	"no"	"no"	"1366"
"50"	""	"undefined"	"undefined"	"undefined"	"undefined"	"white"	"no"	"xpyriment"	"legacy"	"legacy"	"0"	"no"	"relative"	"undefined"	"undefined"	"0"	"2"	"2"	"0"	"0"	"0"	"2"	"0"	"0"	"2"	"0"	"0"	"0"	"0"	"0"	"0"	"0"	"0"	"2"	"4"	"0"	"0"	"0"	"0"	"0"	"2"	"345"	"767"	"02/14/18 15:27:46"	"Executes Python code"	"yes"	""	"lineup_liveWOMEN_W.osexp"	"C:\Users\Laptop3\Desktop\Wednesday 1402"	"no"	"mono"	"no"	"24"	"no"	"black"	"no"	"Continue"	"yes"	"768"	"No"	"no"	"no"	"no"	"legacy"	"2"	"0"	"2"	"0"	"C:/Users/Laptop3/Desktop/Wednesday 1402/subject-59.csv"	"3"	"xpyriment"	"Jazzy James"	"3.1.4"	"0"	"1"	"1"	"5175"	"5175"	"2"	"legacy"	"1024"	"2"	"48000"	"-16"	"experiment"	"59"	"odd"	"legacy"	NA	NA	"47955"	NA	NA	NA	NA	NA	"1508"	"43803"	"1508"	NA	NA	"1511"	"1511"	"8174"	"8174"	"8157"	"38628"	"47955"	NA	NA	NA	NA	NA	"38627"	"lineup1"	"0"	"0"	"0"	"no"	"no"	"1366"
"51"	""	"undefined"	"undefined"	"undefined"	"undefined"	"white"	"no"	"xpyriment"	"legacy"	"legacy"	"0"	"no"	"relative"	"undefined"	"undefined"	"0"	"3"	"3"	"0"	"0"	"0"	"3"	"0"	"0"	"3"	"0"	"0"	"0"	"0"	"0"	"0"	"0"	"0"	"3"	"5"	"0"	"0"	"0"	"0"	"0"	"3"	"1"	"714"	"02/14/18 15:27:46"	"Executes Python code"	"yes"	""	"lineup_liveWOMEN_W.osexp"	"C:\Users\Laptop3\Desktop\Wednesday 1402"	"no"	"mono"	"no"	"24"	"no"	"black"	"no"	"Continue"	"yes"	"768"	"No"	"no"	"no"	"no"	"legacy"	"3"	"0"	"3"	"0"	"C:/Users/Laptop3/Desktop/Wednesday 1402/subject-59.csv"	"4"	"xpyriment"	"Jazzy James"	"3.1.4"	"0"	"1"	"1"	"6968"	"6968"	"2"	"legacy"	"1024"	"2"	"48000"	"-16"	"experiment"	"59"	"odd"	"legacy"	NA	NA	"58077"	NA	NA	NA	NA	NA	"1508"	"55020"	"1508"	NA	NA	"1511"	"1511"	"8174"	"8174"	"8157"	"48051"	"58077"	NA	NA	NA	NA	NA	"48050"	"lineup1"	"0"	"0"	"0"	"no"	"no"	"1366"
"52"	""	"undefined"	"undefined"	"undefined"	"undefined"	"white"	"no"	"xpyriment"	"legacy"	"legacy"	"0"	"no"	"relative"	"undefined"	"undefined"	"0"	"4"	"4"	"0"	"0"	"0"	"4"	"0"	"0"	"4"	"0"	"0"	"0"	"0"	"0"	"0"	"0"	"0"	"4"	"6"	"0"	"0"	"0"	"0"	"0"	"4"	"350"	"764"	"02/14/18 15:27:46"	"Executes Python code"	"yes"	""	"lineup_liveWOMEN_W.osexp"	"C:\Users\Laptop3\Desktop\Wednesday 1402"	"no"	"mono"	"no"	"24"	"no"	"black"	"no"	"Continue"	"yes"	"768"	"No"	"no"	"no"	"no"	"legacy"	"4"	"0"	"4"	"0"	"C:/Users/Laptop3/Desktop/Wednesday 1402/subject-59.csv"	"5"	"xpyriment"	"Jazzy James"	"3.1.4"	"0"	"1"	"1"	"7534"	"7534"	"2"	"legacy"	"1024"	"2"	"48000"	"-16"	"experiment"	"59"	"odd"	"legacy"	NA	NA	"68661"	NA	NA	NA	NA	NA	"1508"	"65707"	"1508"	NA	NA	"1511"	"1511"	"8174"	"8174"	"8157"	"58173"	"68661"	NA	NA	NA	NA	NA	"58172"	"lineup1"	"0"	"0"	"0"	"no"	"no"	"1366"
"53"	""	"undefined"	"undefined"	"undefined"	"undefined"	"white"	"no"	"xpyriment"	"legacy"	"legacy"	"0"	"no"	"relative"	"undefined"	"undefined"	"0"	"5"	"5"	"0"	"0"	"0"	"5"	"0"	"0"	"5"	"0"	"0"	"0"	"0"	"0"	"0"	"0"	"0"	"5"	"7"	"0"	"0"	"0"	"0"	"0"	"5"	"219"	"749"	"02/14/18 15:27:46"	"Executes Python code"	"yes"	""	"lineup_liveWOMEN_W.osexp"	"C:\Users\Laptop3\Desktop\Wednesday 1402"	"no"	"mono"	"no"	"24"	"no"	"black"	"no"	"Continue"	"yes"	"768"	"No"	"no"	"no"	"no"	"legacy"	"5"	"0"	"5"	"0"	"C:/Users/Laptop3/Desktop/Wednesday 1402/subject-59.csv"	"6"	"xpyriment"	"Jazzy James"	"3.1.4"	"0"	"1"	"1"	"9131"	"9131"	"2"	"legacy"	"1024"	"2"	"48000"	"-16"	"experiment"	"59"	"odd"	"legacy"	NA	NA	"81038"	NA	NA	NA	NA	NA	"1508"	"77883"	"1508"	NA	NA	"1511"	"1511"	"8174"	"8174"	"8157"	"68752"	"81039"	NA	NA	NA	NA	NA	"68751"	"lineup1"	"0"	"0"	"0"	"no"	"no"	"1366"
"54"	""	"undefined"	"undefined"	"undefined"	"undefined"	"white"	"no"	"xpyriment"	"legacy"	"legacy"	"0"	"no"	"relative"	"undefined"	"undefined"	"0"	"5"	"5"	"0"	"0"	"0"	"5"	"0"	"0"	"5"	"0"	"0"	"0"	"0"	"0"	"0"	"0"	"0"	"5"	"7"	"0"	"0"	"0"	"0"	"0"	"5"	"219"	"749"	"02/14/18 15:27:46"	"Executes Python code"	"yes"	""	"lineup_liveWOMEN_W.osexp"	"C:\Users\Laptop3\Desktop\Wednesday 1402"	"no"	"mono"	"no"	"24"	"no"	"black"	"no"	"Continue"	"yes"	"768"	"No"	"No"	"no"	"No"	"legacy"	"5"	"0"	"5"	"0"	"C:/Users/Laptop3/Desktop/Wednesday 1402/subject-59.csv"	"6"	"xpyriment"	"Jazzy James"	"3.1.4"	"0"	"1"	"1"	"9131"	"9131"	"2"	"legacy"	"1024"	"2"	"48000"	"-16"	"experiment"	"59"	"odd"	"legacy"	"83982"	NA	"81038"	"83981"	NA	"94827"	NA	NA	"1508"	"77883"	"1508"	NA	NA	"1511"	"1511"	"8174"	"8174"	"8157"	"68752"	"94828"	"81074"	NA	"87341"	NA	NA	"68751"	"lineup1"	"0"	"0"	"0"	"no"	"no"	"1366"
"55"	""	"undefined"	"undefined"	"undefined"	"undefined"	"white"	"no"	"xpyriment"	"legacy"	"legacy"	"0"	"no"	"relative"	"undefined"	"undefined"	"0"	"5"	"5"	"0"	"0"	"0"	"5"	"0"	"0"	"5"	"0"	"0"	"0"	"0"	"0"	"0"	"0"	"0"	"5"	"7"	"0"	"0"	"0"	"0"	"0"	"5"	"219"	"749"	"02/14/18 15:27:46"	"Executes Python code"	"yes"	""	"lineup_liveWOMEN_W.osexp"	"C:\Users\Laptop3\Desktop\Wednesday 1402"	"no"	"mono"	"no"	"24"	"no"	"black"	"no"	"Click to end"	"yes"	"768"	"No"	"No"	"no"	"No"	"legacy"	"5"	"0"	"5"	"0"	"C:/Users/Laptop3/Desktop/Wednesday 1402/subject-59.csv"	"6"	"xpyriment"	"Jazzy James"	"3.1.4"	"0"	"1"	"1"	"9131"	"9131"	"2"	"legacy"	"1024"	"2"	"48000"	"-16"	"experiment"	"59"	"odd"	"legacy"	"83982"	NA	"81038"	"83981"	NA	"94827"	NA	"94857"	"1508"	"77883"	"1508"	NA	NA	"1511"	"1511"	"8174"	"8174"	"8157"	"68752"	"95859"	"81074"	NA	"87341"	NA	NA	"68751"	"lineup1"	"0"	"0"	"0"	"no"	"no"	"1366"
"56"	""	"undefined"	"undefined"	"undefined"	"undefined"	"white"	"no"	"xpyriment"	"legacy"	"legacy"	"0"	"no"	"relative"	"undefined"	"undefined"	"0"	"0"	"0"	"0"	"0"	"0"	"0"	"0"	"0"	"0"	"0"	"0"	"0"	"0"	"0"	"0"	"0"	"0"	"0"	"2"	"0"	"0"	"0"	"0"	"0"	"0"	"576"	"767"	"02/14/18 15:31:08"	"Executes Python code"	"yes"	""	"lineup_liveWOMEN_W.osexp"	"C:\Users\Laptop3\Desktop\Wednesday 1402"	"no"	"mono"	"no"	"24"	"no"	"black"	"no"	"Continue"	"yes"	"768"	"No"	"no"	"no"	"no"	"legacy"	"0"	"0"	"0"	"0"	"C:/Users/Laptop3/Desktop/Wednesday 1402/subject-60.csv"	"1"	"xpyriment"	"Jazzy James"	"3.1.4"	"0"	"1"	"1"	"23026"	"23026"	"2"	"legacy"	"1024"	"2"	"48000"	"-16"	"experiment"	"60"	"even"	"legacy"	NA	NA	"39029"	NA	NA	NA	NA	NA	"1480"	"31843"	"1480"	NA	NA	"1484"	"1484"	"8758"	"8757"	"8741"	"8817"	"39029"	NA	NA	NA	NA	NA	"8815"	"lineup1"	"0"	"0"	"0"	"no"	"no"	"1366"
"57"	""	"undefined"	"undefined"	"undefined"	"undefined"	"white"	"no"	"xpyriment"	"legacy"	"legacy"	"0"	"no"	"relative"	"undefined"	"undefined"	"0"	"1"	"1"	"0"	"0"	"0"	"1"	"0"	"0"	"1"	"0"	"0"	"0"	"0"	"0"	"0"	"0"	"0"	"1"	"3"	"0"	"0"	"0"	"0"	"0"	"1"	"351"	"651"	"02/14/18 15:31:08"	"Executes Python code"	"yes"	""	"lineup_liveWOMEN_W.osexp"	"C:\Users\Laptop3\Desktop\Wednesday 1402"	"no"	"mono"	"no"	"24"	"no"	"black"	"no"	"Continue"	"yes"	"768"	"No"	"no"	"no"	"no"	"legacy"	"1"	"0"	"1"	"0"	"C:/Users/Laptop3/Desktop/Wednesday 1402/subject-60.csv"	"2"	"xpyriment"	"Jazzy James"	"3.1.4"	"0"	"1"	"1"	"20864"	"20864"	"2"	"legacy"	"1024"	"2"	"48000"	"-16"	"experiment"	"60"	"even"	"legacy"	NA	NA	"62823"	NA	NA	NA	NA	NA	"1480"	"59994"	"1480"	NA	NA	"1484"	"1484"	"8758"	"8757"	"8741"	"39130"	"62824"	NA	NA	NA	NA	NA	"39129"	"lineup1"	"0"	"0"	"0"	"no"	"no"	"1366"
"58"	""	"undefined"	"undefined"	"undefined"	"undefined"	"white"	"no"	"xpyriment"	"legacy"	"legacy"	"0"	"60"	"relative"	"undefined"	"undefined"	"0"	"2"	"2"	"0"	"0"	"0"	"2"	"0"	"0"	"2"	"0"	"0"	"0"	"0"	"0"	"0"	"0"	"0"	"2"	"4"	"0"	"0"	"0"	"0"	"0"	"2"	"264"	"466"	"02/14/18 15:31:08"	"Executes Python code"	"yes"	""	"lineup_liveWOMEN_W.osexp"	"C:\Users\Laptop3\Desktop\Wednesday 1402"	"no"	"mono"	"no"	"24"	"no"	"black"	"no"	"Continue"	"yes"	"768"	"Yes"	"no"	"no"	"no"	"legacy"	"2"	"0"	"2"	"0"	"C:/Users/Laptop3/Desktop/Wednesday 1402/subject-60.csv"	"3"	"xpyriment"	"Jazzy James"	"3.1.4"	"0"	"1"	"1"	"15684"	"15684"	"2"	"legacy"	"1024"	"2"	"48000"	"-16"	"experiment"	"60"	"even"	"legacy"	NA	"90476"	"84143"	NA	NA	NA	"84143"	NA	"1480"	"78602"	"1480"	NA	NA	"1484"	"1484"	"8758"	"8757"	"8741"	"62918"	"90477"	NA	NA	NA	NA	NA	"62917"	"lineup1"	"0"	"0"	"0"	"no"	"no"	"1366"
"59"	""	"undefined"	"undefined"	"undefined"	"undefined"	"white"	"no"	"xpyriment"	"legacy"	"legacy"	"0"	"no"	"relative"	"undefined"	"undefined"	"0"	"3"	"3"	"0"	"0"	"0"	"3"	"0"	"0"	"3"	"0"	"0"	"0"	"0"	"0"	"0"	"0"	"0"	"3"	"5"	"0"	"0"	"0"	"0"	"0"	"3"	"936"	"624"	"02/14/18 15:31:08"	"Executes Python code"	"yes"	""	"lineup_liveWOMEN_W.osexp"	"C:\Users\Laptop3\Desktop\Wednesday 1402"	"no"	"mono"	"no"	"24"	"no"	"black"	"no"	"Continue"	"yes"	"768"	"No"	"no"	"no"	"no"	"legacy"	"3"	"0"	"3"	"0"	"C:/Users/Laptop3/Desktop/Wednesday 1402/subject-60.csv"	"4"	"xpyriment"	"Jazzy James"	"3.1.4"	"0"	"1"	"1"	"11999"	"11999"	"2"	"legacy"	"1024"	"2"	"48000"	"-16"	"experiment"	"60"	"even"	"legacy"	NA	"90476"	"105627"	NA	NA	NA	"84143"	NA	"1480"	"102571"	"1480"	NA	NA	"1484"	"1484"	"8758"	"8757"	"8741"	"90571"	"105627"	NA	NA	NA	NA	NA	"90570"	"lineup1"	"0"	"0"	"0"	"no"	"no"	"1366"
"60"	""	"undefined"	"undefined"	"undefined"	"undefined"	"white"	"no"	"xpyriment"	"legacy"	"legacy"	"0"	"no"	"relative"	"undefined"	"undefined"	"0"	"4"	"4"	"0"	"0"	"0"	"4"	"0"	"0"	"4"	"0"	"0"	"0"	"0"	"0"	"0"	"0"	"0"	"4"	"6"	"0"	"0"	"0"	"0"	"0"	"4"	"182"	"655"	"02/14/18 15:31:08"	"Executes Python code"	"yes"	""	"lineup_liveWOMEN_W.osexp"	"C:\Users\Laptop3\Desktop\Wednesday 1402"	"no"	"mono"	"no"	"24"	"no"	"black"	"no"	"Continue"	"yes"	"768"	"No"	"no"	"no"	"no"	"legacy"	"4"	"0"	"4"	"0"	"C:/Users/Laptop3/Desktop/Wednesday 1402/subject-60.csv"	"5"	"xpyriment"	"Jazzy James"	"3.1.4"	"0"	"1"	"1"	"11465"	"11465"	"2"	"legacy"	"1024"	"2"	"48000"	"-16"	"experiment"	"60"	"even"	"legacy"	NA	"90476"	"119576"	NA	NA	NA	"84143"	NA	"1480"	"117186"	"1480"	NA	NA	"1484"	"1484"	"8758"	"8757"	"8741"	"105720"	"119576"	NA	NA	NA	NA	NA	"105719"	"lineup1"	"0"	"0"	"0"	"no"	"no"	"1366"
"61"	""	"undefined"	"undefined"	"undefined"	"undefined"	"white"	"no"	"xpyriment"	"legacy"	"legacy"	"0"	"no"	"relative"	"undefined"	"undefined"	"0"	"5"	"5"	"0"	"0"	"0"	"5"	"0"	"0"	"5"	"0"	"0"	"0"	"0"	"0"	"0"	"0"	"0"	"5"	"7"	"0"	"0"	"0"	"0"	"0"	"5"	"237"	"591"	"02/14/18 15:31:08"	"Executes Python code"	"yes"	""	"lineup_liveWOMEN_W.osexp"	"C:\Users\Laptop3\Desktop\Wednesday 1402"	"no"	"mono"	"no"	"24"	"no"	"black"	"no"	"Continue"	"yes"	"768"	"No"	"no"	"no"	"no"	"legacy"	"5"	"0"	"5"	"0"	"C:/Users/Laptop3/Desktop/Wednesday 1402/subject-60.csv"	"6"	"xpyriment"	"Jazzy James"	"3.1.4"	"0"	"1"	"1"	"8220"	"8220"	"2"	"legacy"	"1024"	"2"	"48000"	"-16"	"experiment"	"60"	"even"	"legacy"	NA	"90476"	"130290"	NA	NA	NA	"84143"	NA	"1480"	"127890"	"1480"	NA	NA	"1484"	"1484"	"8758"	"8757"	"8741"	"119670"	"130290"	NA	NA	NA	NA	NA	"119669"	"lineup1"	"0"	"0"	"0"	"no"	"no"	"1366"
"62"	""	"undefined"	"undefined"	"undefined"	"undefined"	"white"	"no"	"xpyriment"	"legacy"	"legacy"	"0"	"no"	"relative"	"undefined"	"undefined"	"0"	"5"	"5"	"0"	"0"	"0"	"5"	"0"	"0"	"5"	"0"	"0"	"0"	"0"	"0"	"0"	"0"	"0"	"5"	"7"	"0"	"0"	"0"	"0"	"0"	"5"	"237"	"591"	"02/14/18 15:31:08"	"Executes Python code"	"yes"	""	"lineup_liveWOMEN_W.osexp"	"C:\Users\Laptop3\Desktop\Wednesday 1402"	"no"	"mono"	"no"	"24"	"no"	"black"	"no"	"Continue"	"yes"	"768"	"No"	"Yes"	"One"	"No"	"legacy"	"5"	"0"	"5"	"0"	"C:/Users/Laptop3/Desktop/Wednesday 1402/subject-60.csv"	"6"	"xpyriment"	"Jazzy James"	"3.1.4"	"0"	"1"	"1"	"8220"	"8220"	"2"	"legacy"	"1024"	"2"	"48000"	"-16"	"experiment"	"60"	"even"	"legacy"	"136969"	"90476"	"130290"	"133503"	"136968"	"148758"	"84143"	NA	"1480"	"127890"	"1480"	NA	NA	"1484"	"1484"	"8758"	"8757"	"8741"	"119670"	"148759"	"130324"	"133503"	"140389"	NA	NA	"119669"	"lineup1"	"0"	"0"	"0"	"no"	"no"	"1366"
"63"	""	"undefined"	"undefined"	"undefined"	"undefined"	"white"	"no"	"xpyriment"	"legacy"	"legacy"	"0"	"no"	"relative"	"undefined"	"undefined"	"0"	"5"	"5"	"0"	"0"	"0"	"5"	"0"	"0"	"5"	"0"	"0"	"0"	"0"	"0"	"0"	"0"	"0"	"5"	"7"	"0"	"0"	"0"	"0"	"0"	"5"	"237"	"591"	"02/14/18 15:31:08"	"Executes Python code"	"yes"	""	"lineup_liveWOMEN_W.osexp"	"C:\Users\Laptop3\Desktop\Wednesday 1402"	"no"	"mono"	"no"	"24"	"no"	"black"	"no"	"Click to end"	"yes"	"768"	"No"	"Yes"	"One"	"No"	"legacy"	"5"	"0"	"5"	"0"	"C:/Users/Laptop3/Desktop/Wednesday 1402/subject-60.csv"	"6"	"xpyriment"	"Jazzy James"	"3.1.4"	"0"	"1"	"1"	"8220"	"8220"	"2"	"legacy"	"1024"	"2"	"48000"	"-16"	"experiment"	"60"	"even"	"legacy"	"136969"	"90476"	"130290"	"133503"	"136968"	"148758"	"84143"	"148791"	"1480"	"127890"	"1480"	NA	NA	"1484"	"1484"	"8758"	"8757"	"8741"	"119670"	"150217"	"130324"	"133503"	"140389"	NA	NA	"119669"	"lineup1"	"0"	"0"	"0"	"no"	"no"	"1366"
"64"	""	"undefined"	"undefined"	"undefined"	"undefined"	"white"	"no"	"xpyriment"	"legacy"	"legacy"	"0"	"no"	"relative"	"undefined"	"undefined"	"0"	"0"	"0"	"0"	"0"	"0"	"0"	"0"	"0"	"0"	"0"	"0"	"0"	"0"	"0"	"0"	"0"	"0"	"0"	"2"	"0"	"0"	"0"	"0"	"0"	"0"	"757"	"508"	"02/14/18 15:10:11"	"Executes Python code"	"yes"	""	"lineup_liveWOMEN_W.osexp"	"C:\Users\Laptop3\Desktop\Wednesday 1402"	"no"	"mono"	"no"	"24"	"no"	"black"	"no"	"Continue"	"yes"	"768"	"No"	"no"	"no"	"no"	"legacy"	"0"	"0"	"0"	"0"	"C:/Users/Laptop3/Desktop/Wednesday 1402/subject-75.csv"	"1"	"xpyriment"	"Jazzy James"	"3.1.4"	"0"	"1"	"1"	"13362"	"13362"	"2"	"legacy"	"1024"	"2"	"48000"	"-16"	"experiment"	"75"	"odd"	"legacy"	NA	NA	"30033"	NA	NA	NA	NA	NA	"1459"	"25440"	"1459"	NA	NA	"1463"	"1463"	"12018"	"12018"	"12002"	"12077"	"30033"	NA	NA	NA	NA	NA	"12076"	"lineup1"	"0"	"0"	"0"	"no"	"no"	"1366"
"65"	""	"undefined"	"undefined"	"undefined"	"undefined"	"white"	"no"	"xpyriment"	"legacy"	"legacy"	"0"	"no"	"relative"	"undefined"	"undefined"	"0"	"1"	"1"	"0"	"0"	"0"	"1"	"0"	"0"	"1"	"0"	"0"	"0"	"0"	"0"	"0"	"0"	"0"	"1"	"3"	"0"	"0"	"0"	"0"	"0"	"1"	"346"	"350"	"02/14/18 15:10:11"	"Executes Python code"	"yes"	""	"lineup_liveWOMEN_W.osexp"	"C:\Users\Laptop3\Desktop\Wednesday 1402"	"no"	"mono"	"no"	"24"	"no"	"black"	"no"	"Continue"	"yes"	"768"	"No"	"no"	"no"	"no"	"legacy"	"1"	"0"	"1"	"0"	"C:/Users/Laptop3/Desktop/Wednesday 1402/subject-75.csv"	"2"	"xpyriment"	"Jazzy James"	"3.1.4"	"0"	"1"	"1"	"9484"	"9484"	"2"	"legacy"	"1024"	"2"	"48000"	"-16"	"experiment"	"75"	"odd"	"legacy"	NA	NA	"45222"	NA	NA	NA	NA	NA	"1459"	"39614"	"1459"	NA	NA	"1463"	"1463"	"12018"	"12018"	"12002"	"30130"	"45222"	NA	NA	NA	NA	NA	"30129"	"lineup1"	"0"	"0"	"0"	"no"	"no"	"1366"
"66"	""	"undefined"	"undefined"	"undefined"	"undefined"	"white"	"no"	"xpyriment"	"legacy"	"legacy"	"0"	"100"	"relative"	"undefined"	"undefined"	"0"	"2"	"2"	"0"	"0"	"0"	"2"	"0"	"0"	"2"	"0"	"0"	"0"	"0"	"0"	"0"	"0"	"0"	"2"	"4"	"0"	"0"	"0"	"0"	"0"	"2"	"324"	"284"	"02/14/18 15:10:11"	"Executes Python code"	"yes"	""	"lineup_liveWOMEN_W.osexp"	"C:\Users\Laptop3\Desktop\Wednesday 1402"	"no"	"mono"	"no"	"24"	"no"	"black"	"no"	"Continue"	"yes"	"768"	"Yes"	"no"	"no"	"no"	"legacy"	"2"	"0"	"2"	"0"	"C:/Users/Laptop3/Desktop/Wednesday 1402/subject-75.csv"	"3"	"xpyriment"	"Jazzy James"	"3.1.4"	"0"	"1"	"1"	"7472"	"7472"	"2"	"legacy"	"1024"	"2"	"48000"	"-16"	"experiment"	"75"	"odd"	"legacy"	NA	"61997"	"56615"	NA	NA	NA	"56616"	NA	"1459"	"52791"	"1459"	NA	NA	"1463"	"1463"	"12018"	"12018"	"12002"	"45318"	"61997"	NA	NA	NA	NA	NA	"45317"	"lineup1"	"0"	"0"	"0"	"no"	"no"	"1366"
"67"	""	"undefined"	"undefined"	"undefined"	"undefined"	"white"	"no"	"xpyriment"	"legacy"	"legacy"	"0"	"no"	"relative"	"undefined"	"undefined"	"0"	"3"	"3"	"0"	"0"	"0"	"3"	"0"	"0"	"3"	"0"	"0"	"0"	"0"	"0"	"0"	"0"	"0"	"3"	"5"	"0"	"0"	"0"	"0"	"0"	"3"	"739"	"476"	"02/14/18 15:10:11"	"Executes Python code"	"yes"	""	"lineup_liveWOMEN_W.osexp"	"C:\Users\Laptop3\Desktop\Wednesday 1402"	"no"	"mono"	"no"	"24"	"no"	"black"	"no"	"Continue"	"yes"	"768"	"No"	"no"	"no"	"no"	"legacy"	"3"	"0"	"3"	"0"	"C:/Users/Laptop3/Desktop/Wednesday 1402/subject-75.csv"	"4"	"xpyriment"	"Jazzy James"	"3.1.4"	"0"	"1"	"1"	"7641"	"7641"	"2"	"legacy"	"1024"	"2"	"48000"	"-16"	"experiment"	"75"	"odd"	"legacy"	NA	"61997"	"73206"	NA	NA	NA	"56616"	NA	"1459"	"69734"	"1459"	NA	NA	"1463"	"1463"	"12018"	"12018"	"12002"	"62093"	"73206"	NA	NA	NA	NA	NA	"62092"	"lineup1"	"0"	"0"	"0"	"no"	"no"	"1366"
"68"	""	"undefined"	"undefined"	"undefined"	"undefined"	"white"	"no"	"xpyriment"	"legacy"	"legacy"	"0"	"no"	"relative"	"undefined"	"undefined"	"0"	"4"	"4"	"0"	"0"	"0"	"4"	"0"	"0"	"4"	"0"	"0"	"0"	"0"	"0"	"0"	"0"	"0"	"4"	"6"	"0"	"0"	"0"	"0"	"0"	"4"	"600"	"469"	"02/14/18 15:10:11"	"Executes Python code"	"yes"	""	"lineup_liveWOMEN_W.osexp"	"C:\Users\Laptop3\Desktop\Wednesday 1402"	"no"	"mono"	"no"	"24"	"no"	"black"	"no"	"Continue"	"yes"	"768"	"No"	"no"	"no"	"no"	"legacy"	"4"	"0"	"4"	"0"	"C:/Users/Laptop3/Desktop/Wednesday 1402/subject-75.csv"	"5"	"xpyriment"	"Jazzy James"	"3.1.4"	"0"	"1"	"1"	"6959"	"6959"	"2"	"legacy"	"1024"	"2"	"48000"	"-16"	"experiment"	"75"	"odd"	"legacy"	NA	"61997"	"83202"	NA	NA	NA	"56616"	NA	"1459"	"80263"	"1459"	NA	NA	"1463"	"1463"	"12018"	"12018"	"12002"	"73303"	"83203"	NA	NA	NA	NA	NA	"73302"	"lineup1"	"0"	"0"	"0"	"no"	"no"	"1366"
"69"	""	"undefined"	"undefined"	"undefined"	"undefined"	"white"	"no"	"xpyriment"	"legacy"	"legacy"	"0"	"no"	"relative"	"undefined"	"undefined"	"0"	"5"	"5"	"0"	"0"	"0"	"5"	"0"	"0"	"5"	"0"	"0"	"0"	"0"	"0"	"0"	"0"	"0"	"5"	"7"	"0"	"0"	"0"	"0"	"0"	"5"	"394"	"506"	"02/14/18 15:10:11"	"Executes Python code"	"yes"	""	"lineup_liveWOMEN_W.osexp"	"C:\Users\Laptop3\Desktop\Wednesday 1402"	"no"	"mono"	"no"	"24"	"no"	"black"	"no"	"Continue"	"yes"	"768"	"No"	"no"	"no"	"no"	"legacy"	"5"	"0"	"5"	"0"	"C:/Users/Laptop3/Desktop/Wednesday 1402/subject-75.csv"	"6"	"xpyriment"	"Jazzy James"	"3.1.4"	"0"	"1"	"1"	"5725"	"5725"	"2"	"legacy"	"1024"	"2"	"48000"	"-16"	"experiment"	"75"	"odd"	"legacy"	NA	"61997"	"92739"	NA	NA	NA	"56616"	NA	"1459"	"89022"	"1459"	NA	NA	"1463"	"1463"	"12018"	"12018"	"12002"	"83297"	"92739"	NA	NA	NA	NA	NA	"83296"	"lineup1"	"0"	"0"	"0"	"no"	"no"	"1366"
"70"	""	"undefined"	"undefined"	"undefined"	"undefined"	"white"	"no"	"xpyriment"	"legacy"	"legacy"	"0"	"no"	"relative"	"undefined"	"undefined"	"0"	"5"	"5"	"0"	"0"	"0"	"5"	"0"	"0"	"5"	"0"	"0"	"0"	"0"	"0"	"0"	"0"	"0"	"5"	"7"	"0"	"0"	"0"	"0"	"0"	"5"	"394"	"506"	"02/14/18 15:10:11"	"Executes Python code"	"yes"	""	"lineup_liveWOMEN_W.osexp"	"C:\Users\Laptop3\Desktop\Wednesday 1402"	"no"	"mono"	"no"	"24"	"no"	"black"	"no"	"Continue"	"yes"	"768"	"No"	"Yes"	"One"	"No"	"legacy"	"5"	"0"	"5"	"0"	"C:/Users/Laptop3/Desktop/Wednesday 1402/subject-75.csv"	"6"	"xpyriment"	"Jazzy James"	"3.1.4"	"0"	"1"	"1"	"5725"	"5725"	"2"	"legacy"	"1024"	"2"	"48000"	"-16"	"experiment"	"75"	"odd"	"legacy"	"103850"	"61997"	"92739"	"98101"	"103850"	"116929"	"56616"	NA	"1459"	"89022"	"1459"	NA	NA	"1463"	"1463"	"12018"	"12018"	"12002"	"83297"	"116929"	"92775"	"98101"	"109320"	NA	NA	"83296"	"lineup1"	"0"	"0"	"0"	"no"	"no"	"1366"
"71"	""	"undefined"	"undefined"	"undefined"	"undefined"	"white"	"no"	"xpyriment"	"legacy"	"legacy"	"0"	"no"	"relative"	"undefined"	"undefined"	"0"	"5"	"5"	"0"	"0"	"0"	"5"	"0"	"0"	"5"	"0"	"0"	"0"	"0"	"0"	"0"	"0"	"0"	"5"	"7"	"0"	"0"	"0"	"0"	"0"	"5"	"394"	"506"	"02/14/18 15:10:11"	"Executes Python code"	"yes"	""	"lineup_liveWOMEN_W.osexp"	"C:\Users\Laptop3\Desktop\Wednesday 1402"	"no"	"mono"	"no"	"24"	"no"	"black"	"no"	"Click to end"	"yes"	"768"	"No"	"Yes"	"One"	"No"	"legacy"	"5"	"0"	"5"	"0"	"C:/Users/Laptop3/Desktop/Wednesday 1402/subject-75.csv"	"6"	"xpyriment"	"Jazzy James"	"3.1.4"	"0"	"1"	"1"	"5725"	"5725"	"2"	"legacy"	"1024"	"2"	"48000"	"-16"	"experiment"	"75"	"odd"	"legacy"	"103850"	"61997"	"92739"	"98101"	"103850"	"116929"	"56616"	"116961"	"1459"	"89022"	"1459"	NA	NA	"1463"	"1463"	"12018"	"12018"	"12002"	"83297"	"117879"	"92775"	"98101"	"109320"	NA	NA	"83296"	"lineup1"	"0"	"0"	"0"	"no"	"no"	"1366"
"72"	""	"undefined"	"undefined"	"undefined"	"undefined"	"white"	"no"	"xpyriment"	"legacy"	"legacy"	"0"	"no"	"relative"	"undefined"	"undefined"	"0"	"0"	"0"	"0"	"0"	"0"	"0"	"0"	"0"	"0"	"0"	"0"	"0"	"0"	"0"	"0"	"0"	"0"	"0"	"2"	"0"	"0"	"0"	"0"	"0"	"0"	"624"	"726"	"02/14/18 15:22:21"	"Executes Python code"	"yes"	""	"lineup_liveWOMEN_W.osexp"	"C:\Users\Laptop3\Desktop\Wednesday 1402"	"no"	"mono"	"no"	"24"	"no"	"black"	"no"	"Continue"	"yes"	"768"	"No"	"no"	"no"	"no"	"legacy"	"0"	"0"	"0"	"0"	"C:/Users/Laptop3/Desktop/Wednesday 1402/subject-84.csv"	"1"	"xpyriment"	"Jazzy James"	"3.1.4"	"0"	"1"	"1"	"31595"	"31595"	"2"	"legacy"	"1024"	"2"	"48000"	"-16"	"experiment"	"84"	"even"	"legacy"	NA	NA	"43714"	NA	NA	NA	NA	NA	"1487"	"40094"	"1487"	NA	NA	"1491"	"1491"	"8439"	"8439"	"8423"	"8499"	"43714"	NA	NA	NA	NA	NA	"8498"	"lineup1"	"0"	"0"	"0"	"no"	"no"	"1366"
"73"	""	"undefined"	"undefined"	"undefined"	"undefined"	"white"	"no"	"xpyriment"	"legacy"	"legacy"	"0"	"no"	"relative"	"undefined"	"undefined"	"0"	"1"	"1"	"0"	"0"	"0"	"1"	"0"	"0"	"1"	"0"	"0"	"0"	"0"	"0"	"0"	"0"	"0"	"1"	"3"	"0"	"0"	"0"	"0"	"0"	"1"	"347"	"705"	"02/14/18 15:22:21"	"Executes Python code"	"yes"	""	"lineup_liveWOMEN_W.osexp"	"C:\Users\Laptop3\Desktop\Wednesday 1402"	"no"	"mono"	"no"	"24"	"no"	"black"	"no"	"Continue"	"yes"	"768"	"No"	"no"	"no"	"no"	"legacy"	"1"	"0"	"1"	"0"	"C:/Users/Laptop3/Desktop/Wednesday 1402/subject-84.csv"	"2"	"xpyriment"	"Jazzy James"	"3.1.4"	"0"	"1"	"1"	"17596"	"17596"	"2"	"legacy"	"1024"	"2"	"48000"	"-16"	"experiment"	"84"	"even"	"legacy"	NA	NA	"64348"	NA	NA	NA	NA	NA	"1487"	"61406"	"1487"	NA	NA	"1491"	"1491"	"8439"	"8439"	"8423"	"43810"	"64348"	NA	NA	NA	NA	NA	"43809"	"lineup1"	"0"	"0"	"0"	"no"	"no"	"1366"
"74"	""	"undefined"	"undefined"	"undefined"	"undefined"	"white"	"no"	"xpyriment"	"legacy"	"legacy"	"0"	"no"	"relative"	"undefined"	"undefined"	"0"	"2"	"2"	"0"	"0"	"0"	"2"	"0"	"0"	"2"	"0"	"0"	"0"	"0"	"0"	"0"	"0"	"0"	"2"	"4"	"0"	"0"	"0"	"0"	"0"	"2"	"213"	"682"	"02/14/18 15:22:21"	"Executes Python code"	"yes"	""	"lineup_liveWOMEN_W.osexp"	"C:\Users\Laptop3\Desktop\Wednesday 1402"	"no"	"mono"	"no"	"24"	"no"	"black"	"no"	"Continue"	"yes"	"768"	"No"	"no"	"no"	"no"	"legacy"	"2"	"0"	"2"	"0"	"C:/Users/Laptop3/Desktop/Wednesday 1402/subject-84.csv"	"3"	"xpyriment"	"Jazzy James"	"3.1.4"	"0"	"1"	"1"	"18975"	"18975"	"2"	"legacy"	"1024"	"2"	"48000"	"-16"	"experiment"	"84"	"even"	"legacy"	NA	NA	"86699"	NA	NA	NA	NA	NA	"1487"	"83422"	"1487"	NA	NA	"1491"	"1491"	"8439"	"8439"	"8423"	"64446"	"86699"	NA	NA	NA	NA	NA	"64445"	"lineup1"	"0"	"0"	"0"	"no"	"no"	"1366"
"75"	""	"undefined"	"undefined"	"undefined"	"undefined"	"white"	"no"	"xpyriment"	"legacy"	"legacy"	"0"	"no"	"relative"	"undefined"	"undefined"	"0"	"3"	"3"	"0"	"0"	"0"	"3"	"0"	"0"	"3"	"0"	"0"	"0"	"0"	"0"	"0"	"0"	"0"	"3"	"5"	"0"	"0"	"0"	"0"	"0"	"3"	"436"	"16"	"02/14/18 15:22:21"	"Executes Python code"	"yes"	""	"lineup_liveWOMEN_W.osexp"	"C:\Users\Laptop3\Desktop\Wednesday 1402"	"no"	"mono"	"no"	"24"	"no"	"black"	"no"	"Continue"	"yes"	"768"	"No"	"no"	"no"	"no"	"legacy"	"3"	"0"	"3"	"0"	"C:/Users/Laptop3/Desktop/Wednesday 1402/subject-84.csv"	"4"	"xpyriment"	"Jazzy James"	"3.1.4"	"0"	"1"	"1"	"10659"	"10659"	"2"	"legacy"	"1024"	"2"	"48000"	"-16"	"experiment"	"84"	"even"	"legacy"	NA	NA	"99649"	NA	NA	NA	NA	NA	"1487"	"97454"	"1487"	NA	NA	"1491"	"1491"	"8439"	"8439"	"8423"	"86794"	"99649"	NA	NA	NA	NA	NA	"86793"	"lineup1"	"0"	"0"	"0"	"no"	"no"	"1366"
"76"	""	"undefined"	"undefined"	"undefined"	"undefined"	"white"	"no"	"xpyriment"	"legacy"	"legacy"	"0"	"no"	"relative"	"undefined"	"undefined"	"0"	"4"	"4"	"0"	"0"	"0"	"4"	"0"	"0"	"4"	"0"	"0"	"0"	"0"	"0"	"0"	"0"	"0"	"4"	"6"	"0"	"0"	"0"	"0"	"0"	"4"	"247"	"696"	"02/14/18 15:22:21"	"Executes Python code"	"yes"	""	"lineup_liveWOMEN_W.osexp"	"C:\Users\Laptop3\Desktop\Wednesday 1402"	"no"	"mono"	"no"	"24"	"no"	"black"	"no"	"Continue"	"yes"	"768"	"No"	"no"	"no"	"no"	"legacy"	"4"	"0"	"4"	"0"	"C:/Users/Laptop3/Desktop/Wednesday 1402/subject-84.csv"	"5"	"xpyriment"	"Jazzy James"	"3.1.4"	"0"	"1"	"1"	"7233"	"7233"	"2"	"legacy"	"1024"	"2"	"48000"	"-16"	"experiment"	"84"	"even"	"legacy"	NA	NA	"109711"	NA	NA	NA	NA	NA	"1487"	"106974"	"1487"	NA	NA	"1491"	"1491"	"8439"	"8439"	"8423"	"99741"	"109711"	NA	NA	NA	NA	NA	"99740"	"lineup1"	"0"	"0"	"0"	"no"	"no"	"1366"
"77"	""	"undefined"	"undefined"	"undefined"	"undefined"	"white"	"no"	"xpyriment"	"legacy"	"legacy"	"0"	"no"	"relative"	"undefined"	"undefined"	"0"	"5"	"5"	"0"	"0"	"0"	"5"	"0"	"0"	"5"	"0"	"0"	"0"	"0"	"0"	"0"	"0"	"0"	"5"	"7"	"0"	"0"	"0"	"0"	"0"	"5"	"249"	"613"	"02/14/18 15:22:21"	"Executes Python code"	"yes"	""	"lineup_liveWOMEN_W.osexp"	"C:\Users\Laptop3\Desktop\Wednesday 1402"	"no"	"mono"	"no"	"24"	"no"	"black"	"no"	"Continue"	"yes"	"768"	"No"	"no"	"no"	"no"	"legacy"	"5"	"0"	"5"	"0"	"C:/Users/Laptop3/Desktop/Wednesday 1402/subject-84.csv"	"6"	"xpyriment"	"Jazzy James"	"3.1.4"	"0"	"1"	"1"	"11431"	"11431"	"2"	"legacy"	"1024"	"2"	"48000"	"-16"	"experiment"	"84"	"even"	"legacy"	NA	NA	"123854"	NA	NA	NA	NA	NA	"1487"	"121237"	"1487"	NA	NA	"1491"	"1491"	"8439"	"8439"	"8423"	"109806"	"123854"	NA	NA	NA	NA	NA	"109805"	"lineup1"	"0"	"0"	"0"	"no"	"no"	"1366"
"78"	""	"undefined"	"undefined"	"undefined"	"undefined"	"white"	"no"	"xpyriment"	"legacy"	"legacy"	"0"	"no"	"relative"	"undefined"	"undefined"	"0"	"5"	"5"	"0"	"0"	"0"	"5"	"0"	"0"	"5"	"0"	"0"	"0"	"0"	"0"	"0"	"0"	"0"	"5"	"7"	"0"	"0"	"0"	"0"	"0"	"5"	"249"	"613"	"02/14/18 15:22:21"	"Executes Python code"	"yes"	""	"lineup_liveWOMEN_W.osexp"	"C:\Users\Laptop3\Desktop\Wednesday 1402"	"no"	"mono"	"no"	"24"	"no"	"black"	"no"	"Continue"	"yes"	"768"	"No"	"No"	"no"	"No"	"legacy"	"5"	"0"	"5"	"0"	"C:/Users/Laptop3/Desktop/Wednesday 1402/subject-84.csv"	"6"	"xpyriment"	"Jazzy James"	"3.1.4"	"0"	"1"	"1"	"11431"	"11431"	"2"	"legacy"	"1024"	"2"	"48000"	"-16"	"experiment"	"84"	"even"	"legacy"	"130443"	NA	"123854"	"130443"	NA	"140884"	NA	NA	"1487"	"121237"	"1487"	NA	NA	"1491"	"1491"	"8439"	"8439"	"8423"	"109806"	"140884"	"123888"	NA	"133722"	NA	NA	"109805"	"lineup1"	"0"	"0"	"0"	"no"	"no"	"1366"
"79"	""	"undefined"	"undefined"	"undefined"	"undefined"	"white"	"no"	"xpyriment"	"legacy"	"legacy"	"0"	"no"	"relative"	"undefined"	"undefined"	"0"	"5"	"5"	"0"	"0"	"0"	"5"	"0"	"0"	"5"	"0"	"0"	"0"	"0"	"0"	"0"	"0"	"0"	"5"	"7"	"0"	"0"	"0"	"0"	"0"	"5"	"249"	"613"	"02/14/18 15:22:21"	"Executes Python code"	"yes"	""	"lineup_liveWOMEN_W.osexp"	"C:\Users\Laptop3\Desktop\Wednesday 1402"	"no"	"mono"	"no"	"24"	"no"	"black"	"no"	"Click to end"	"yes"	"768"	"No"	"No"	"no"	"No"	"legacy"	"5"	"0"	"5"	"0"	"C:/Users/Laptop3/Desktop/Wednesday 1402/subject-84.csv"	"6"	"xpyriment"	"Jazzy James"	"3.1.4"	"0"	"1"	"1"	"11431"	"11431"	"2"	"legacy"	"1024"	"2"	"48000"	"-16"	"experiment"	"84"	"even"	"legacy"	"130443"	NA	"123854"	"130443"	NA	"140884"	NA	"140914"	"1487"	"121237"	"1487"	NA	NA	"1491"	"1491"	"8439"	"8439"	"8423"	"109806"	"142840"	"123888"	NA	"133722"	NA	NA	"109805"	"lineup1"	"0"	"0"	"0"	"no"	"no"	"1366"
