"_prepare","background","bidi","canvas_backend","clock_backend","color_backend","compensation","confidence_immediate","coordinates","count_TA_sequence_setting","count_TP_sequence_setting","count_admin_check","count_check_TA","count_check_TP","count_check_confidence_imm","count_check_identification","count_check_made_identification","count_check_multiple_identification","count_check_proceeding_identification","count_check_time_of_exposure","count_confidence_imm","count_end_of_experiment","count_experiment","count_gender_lineup_loop","count_gender_randomization_sequence","count_identification_task","count_instructions_after_multiple","count_instructions_after_proceed_identification","count_instructions_before_view","count_lineup_loop","count_lineup_procedure_loop","count_lineup_procedure_sequence","count_lineup_sequence","count_logger","count_made_identification","count_member_randomization_loop","count_member_randomization_sequence","count_multiple_identification","count_proceed_identification","count_repeat_lineup_sequence_identification","count_repeat_lineup_sequence_multiple","count_target_setting","count_target_setting_loop","count_target_setting_sequence","count_time_of_exposure","count_video","datetime","description","disable_garbage_collection","empty_column","experiment_file","experiment_path","font_bold","font_family","font_italic","font_size","font_underline","foreground","form_clicks","fullscreen","gender","height","identification","identification_made","identification_multiple","identification_proceed","keyboard_backend","lecture_time","live_row","live_row_target_setting_loop","logfile","member","member1","member2","member3","member4","member5","member6","mouse_backend","opensesame_codename","opensesame_version","repeat_cycle","round_decimals","sampler_backend","sound_buf_size","sound_channels","sound_freq","sound_sample_size","start","subject_nr","subject_parity","synth_backend","target","target1","target2","time_TA_sequence_setting","time_TP_sequence_setting","time_admin_check","time_check_TA","time_check_TP","time_check_confidence_imm","time_check_identification","time_check_made_identification","time_check_multiple_identification","time_check_proceeding_identification","time_check_time_of_exposure","time_confidence_imm","time_end_of_experiment","time_experiment","time_gender_lineup_loop","time_gender_randomization_sequence","time_identification_task","time_instructions_after_multiple","time_instructions_after_proceed_identification","time_instructions_before_view","time_lineup_loop","time_lineup_procedure_loop","time_lineup_procedure_sequence","time_lineup_sequence","time_logger","time_made_identification","time_member_randomization_loop","time_member_randomization_sequence","time_multiple_identification","time_proceed_identification","time_repeat_lineup_sequence_identification","time_repeat_lineup_sequence_multiple","time_target_setting","time_target_setting_loop","time_target_setting_sequence","time_time_of_exposure","time_video","title","transparent_variables","trial","uniform_coordinates","width"
"","white","no","xpyriment","legacy","legacy","0","NA","relative","NA","NA","NA","NA","NA","NA","NA","NA","NA","NA","0","NA","0","0","0","NA","NA","NA","NA","NA","NA","NA","NA","NA","1","NA","NA","NA","NA","NA","NA","NA","0","0","0","0","NA","10/06/18 11:11:29","Executes Python code","yes","","lineup_videoFB.osexp","C:/Users/standalone/Desktop/FB/fb recordings","no","mono","no","24","no","black","no","yes","NA","768","NA","NA","NA","NA","legacy","no","0","0","C:/Users/standalone/Desktop/FB/fb recordings/subject-110.csv","NA","NA","NA","NA","NA","NA","NA","xpyriment","Jazzy James","3.1.6","0","2","legacy","1024","2","48000","-16","experiment","110","even","legacy","NA","present","absent","NA","NA","NA","NA","NA","NA","NA","NA","NA","NA","NA","NA","NA","2020","NA","NA","NA","NA","NA","NA","NA","NA","NA","NA","2021","NA","NA","NA","NA","NA","NA","NA","2021","2020","2021","NA","NA","lineup1","no","NA","no","1366"
"","white","no","xpyriment","legacy","legacy","0","NA","relative","1","1","NA","1","1","NA","NA","NA","NA","NA","0","NA","0","0","0","0","NA","NA","NA","NA","NA","0","NA","NA","3","NA","0","1","NA","NA","NA","NA","0","0","0","0","NA","10/06/18 11:11:29","Executes Python code","yes","","lineup_videoFB.osexp","C:/Users/standalone/Desktop/FB/fb recordings","no","mono","no","24","no","black","no","yes","female","768","NA","NA","NA","NA","legacy","no","0","0","C:/Users/standalone/Desktop/FB/fb recordings/subject-110.csv","NA","3","5","7","4","1","2","xpyriment","Jazzy James","3.1.6","0","2","legacy","1024","2","48000","-16","experiment","110","even","legacy","[target2]","present","absent","2091","NA","NA","2091","NA","NA","NA","NA","NA","NA","NA","NA","NA","2020","2083","2086","NA","NA","NA","NA","NA","NA","NA","NA","2091","NA","2086","2091","NA","NA","NA","NA","2021","2020","2021","NA","NA","lineup1","no","NA","no","1366"
"","white","no","xpyriment","legacy","legacy","0","NA","relative","1","1","NA","1","1","NA","NA","NA","NA","NA","0","NA","0","0","0","0","NA","NA","NA","NA","NA","0","NA","NA","3","NA","0","1","NA","NA","NA","NA","0","0","0","0","NA","10/06/18 11:11:29","Executes Python code","yes","","lineup_videoFB.osexp","C:/Users/standalone/Desktop/FB/fb recordings","no","mono","no","24","no","black","no","yes","female","768","NA","NA","NA","NA","legacy","no","0","0","C:/Users/standalone/Desktop/FB/fb recordings/subject-110.csv","NA","3","5","7","4","1","2","xpyriment","Jazzy James","3.1.6","0","2","legacy","1024","2","48000","-16","experiment","110","even","legacy","[target2]","present","absent","2091","NA","NA","2091","NA","NA","NA","NA","NA","NA","NA","NA","NA","2020","2083","2086","NA","NA","NA","NA","NA","NA","NA","NA","2163","NA","2086","2091","NA","NA","NA","NA","2021","2020","2021","NA","NA","lineup1","no","NA","no","1366"
"","white","no","xpyriment","legacy","legacy","0","no","relative","1","1","0","1","1","0","0","0","0","0","0","0","0","0","0","0","0","0","0","0","0","0","0","0","5","0","0","1","0","0","0","0","0","0","0","0","0","10/06/18 11:11:29","Executes Python code","yes","","lineup_videoFB.osexp","C:/Users/standalone/Desktop/FB/fb recordings","no","mono","no","24","no","black","no","yes","female","768","No","no","no","no","legacy","no","0","0","C:/Users/standalone/Desktop/FB/fb recordings/subject-110.csv","[member1]","3","5","7","4","1","2","xpyriment","Jazzy James","3.1.6","0","2","legacy","1024","2","48000","-16","experiment","110","even","legacy","[target2]","present","absent","2091","NA","NA","2091","NA","NA","28687","NA","NA","NA","NA","NA","NA","2020","2083","2086","25875","NA","NA","2767","2236","2213","2236","2767","28687","NA","2086","2091","NA","NA","NA","NA","2021","2020","2021","NA","6832","lineup1","no","1","no","1366"
"","white","no","xpyriment","legacy","legacy","0","no","relative","1","1","0","1","1","1","1","0","0","0","0","1","0","0","0","0","1","0","0","1","0","0","0","1","6","0","0","1","0","0","0","0","0","0","0","0","1","10/06/18 11:11:29","Executes Python code","yes","","lineup_videoFB.osexp","C:/Users/standalone/Desktop/FB/fb recordings","no","mono","no","24","no","black","no","yes","female","768","No","no","no","no","legacy","no","1","0","C:/Users/standalone/Desktop/FB/fb recordings/subject-110.csv","[member2]","3","5","7","4","1","2","xpyriment","Jazzy James","3.1.6","0","2","legacy","1024","2","48000","-16","experiment","110","even","legacy","[target2]","present","absent","2091","NA","NA","2091","NA","NA","61678","NA","NA","NA","NA","NA","NA","2020","2083","2086","58853","NA","NA","2767","2236","2213","2236","29096","61678","NA","2086","2091","NA","NA","NA","NA","2021","2020","2021","NA","29096","lineup1","no","2","no","1366"
"","white","no","xpyriment","legacy","legacy","0","50","relative","1","1","0","1","1","2","2","0","0","0","0","2","0","0","0","0","2","0","0","2","0","0","0","2","7","0","0","1","0","0","0","0","0","0","0","0","2","10/06/18 11:11:29","Executes Python code","yes","","lineup_videoFB.osexp","C:/Users/standalone/Desktop/FB/fb recordings","no","mono","no","24","no","black","no","yes","female","768","Yes","no","no","no","legacy","no","2","0","C:/Users/standalone/Desktop/FB/fb recordings/subject-110.csv","[member3]","3","5","7","4","1","2","xpyriment","Jazzy James","3.1.6","0","2","legacy","1024","2","48000","-16","experiment","110","even","legacy","[target2]","present","absent","2091","NA","NA","2091","NA","100215","91131","NA","NA","NA","NA","91131","NA","2020","2083","2086","86511","NA","NA","2767","2236","2213","2236","62070","100215","NA","2086","2091","NA","NA","NA","NA","2021","2020","2021","NA","62070","lineup1","no","3","no","1366"
"","white","no","xpyriment","legacy","legacy","0","no","relative","1","1","0","1","1","3","3","0","0","0","0","3","0","0","0","0","3","0","0","3","0","0","0","3","8","0","0","1","0","0","0","0","0","0","0","0","3","10/06/18 11:11:29","Executes Python code","yes","","lineup_videoFB.osexp","C:/Users/standalone/Desktop/FB/fb recordings","no","mono","no","24","no","black","no","yes","female","768","No","no","no","no","legacy","no","3","0","C:/Users/standalone/Desktop/FB/fb recordings/subject-110.csv","[member4]","3","5","7","4","1","2","xpyriment","Jazzy James","3.1.6","0","2","legacy","1024","2","48000","-16","experiment","110","even","legacy","[target2]","present","absent","2091","NA","NA","2091","NA","100215","126490","NA","NA","NA","NA","91131","NA","2020","2083","2086","123684","NA","NA","2767","2236","2213","2236","100616","126490","NA","2086","2091","NA","NA","NA","NA","2021","2020","2021","NA","100616","lineup1","no","4","no","1366"
"","white","no","xpyriment","legacy","legacy","0","no","relative","1","1","0","1","1","4","4","0","0","0","0","4","0","0","0","0","4","0","0","4","0","0","0","4","9","0","0","1","0","0","0","0","0","0","0","0","4","10/06/18 11:11:29","Executes Python code","yes","","lineup_videoFB.osexp","C:/Users/standalone/Desktop/FB/fb recordings","no","mono","no","24","no","black","no","yes","female","768","No","no","no","no","legacy","no","4","0","C:/Users/standalone/Desktop/FB/fb recordings/subject-110.csv","[member5]","3","5","7","4","1","2","xpyriment","Jazzy James","3.1.6","0","2","legacy","1024","2","48000","-16","experiment","110","even","legacy","[target2]","present","absent","2091","NA","NA","2091","NA","100215","147685","NA","NA","NA","NA","91131","NA","2020","2083","2086","144886","NA","NA","2767","2236","2213","2236","126905","147685","NA","2086","2091","NA","NA","NA","NA","2021","2020","2021","NA","126905","lineup1","no","5","no","1366"
"","white","no","xpyriment","legacy","legacy","0","no","relative","1","1","0","1","1","5","5","0","0","0","0","5","0","0","0","0","5","0","0","5","0","0","0","5","10","0","0","1","0","0","0","0","0","0","0","0","5","10/06/18 11:11:29","Executes Python code","yes","","lineup_videoFB.osexp","C:/Users/standalone/Desktop/FB/fb recordings","no","mono","no","24","no","black","no","yes","female","768","Not sure","no","no","no","legacy","no","5","0","C:/Users/standalone/Desktop/FB/fb recordings/subject-110.csv","[member6]","3","5","7","4","1","2","xpyriment","Jazzy James","3.1.6","0","2","legacy","1024","2","48000","-16","experiment","110","even","legacy","[target2]","present","absent","2091","NA","NA","2091","NA","100215","178972","NA","NA","NA","NA","91131","NA","2020","2083","2086","174367","NA","NA","2767","2236","2213","2236","148085","178972","NA","2086","2091","NA","NA","NA","NA","2021","2020","2021","NA","148085","lineup1","no","6","no","1366"
"","white","no","xpyriment","legacy","legacy","0","no","relative","1","1","0","1","1","5","5","0","0","0","0","5","0","0","0","0","5","0","0","5","0","0","0","5","10","0","0","1","0","0","0","0","0","0","0","0","5","10/06/18 11:11:29","Executes Python code","yes","","lineup_videoFB.osexp","C:/Users/standalone/Desktop/FB/fb recordings","no","mono","no","24","no","black","no","yes","female","768","Not sure","Yes","One","No","legacy","no","5","0","C:/Users/standalone/Desktop/FB/fb recordings/subject-110.csv","[member6]","3","5","7","4","1","2","xpyriment","Jazzy James","3.1.6","0","2","legacy","1024","2","48000","-16","experiment","110","even","legacy","[target2]","present","absent","2091","NA","188250","2091","NA","100215","178972","184070","188250","198536","NA","91131","NA","2020","2083","2086","174367","NA","NA","2767","2236","2213","2236","148085","198536","179020","2086","2091","184071","191105","NA","NA","2021","2020","2021","NA","148085","lineup1","no","6","no","1366"
"","white","no","xpyriment","legacy","legacy","0","no","relative","2","2","0","2","2","5","5","0","0","0","0","5","0","0","0","1","5","0","0","5","0","1","0","5","11","0","1","2","0","0","0","0","0","0","0","0","5","10/06/18 11:11:29","Executes Python code","yes","","lineup_videoFB.osexp","C:/Users/standalone/Desktop/FB/fb recordings","no","mono","no","24","no","black","no","yes","male","768","Not sure","Yes","One","No","legacy","no","0","0","C:/Users/standalone/Desktop/FB/fb recordings/subject-110.csv","[member6]","5","2","6","4","3","1","xpyriment","Jazzy James","3.1.6","0","2","legacy","1024","2","48000","-16","experiment","110","even","legacy","[target1]","present","absent","2091","198601","188250","2091","198601","100215","178972","184070","188250","198536","NA","91131","NA","2020","2083","198599","174367","NA","NA","2767","2236","2213","2236","148085","198601","179020","198599","198601","184071","191105","NA","NA","2021","2020","2021","NA","148085","lineup1","no","6","no","1366"
"","white","no","xpyriment","legacy","legacy","0","no","relative","2","2","1","2","2","6","6","1","1","1","0","6","0","0","0","1","6","1","1","6","1","1","1","6","13","1","1","2","1","1","1","1","0","0","0","0","6","10/06/18 11:11:29","Executes Python code","yes","","lineup_videoFB.osexp","C:/Users/standalone/Desktop/FB/fb recordings","no","mono","no","24","no","black","no","yes","male","768","No","no","no","no","legacy","no","0","0","C:/Users/standalone/Desktop/FB/fb recordings/subject-110.csv","[member1]","5","2","6","4","3","1","xpyriment","Jazzy James","3.1.6","0","2","legacy","1024","2","48000","-16","experiment","110","even","legacy","[target1]","present","absent","2091","198601","188250","2091","198601","100215","225269","184070","188250","198536","NA","91131","NA","2020","2083","198599","222861","NA","NA","199015","198662","198638","198662","199015","225269","179020","198599","198601","184071","191105","NA","NA","2021","2020","2021","NA","202266","lineup1","no","1","no","1366"
"","white","no","xpyriment","legacy","legacy","0","no","relative","2","2","1","2","2","7","7","1","1","1","0","7","0","0","0","1","7","1","1","7","1","1","1","7","14","1","1","2","1","1","1","1","0","0","0","0","7","10/06/18 11:11:29","Executes Python code","yes","","lineup_videoFB.osexp","C:/Users/standalone/Desktop/FB/fb recordings","no","mono","no","24","no","black","no","yes","male","768","No","no","no","no","legacy","no","1","0","C:/Users/standalone/Desktop/FB/fb recordings/subject-110.csv","[member2]","5","2","6","4","3","1","xpyriment","Jazzy James","3.1.6","0","2","legacy","1024","2","48000","-16","experiment","110","even","legacy","[target1]","present","absent","2091","198601","188250","2091","198601","100215","247146","184070","188250","198536","NA","91131","NA","2020","2083","198599","244707","NA","NA","199015","198662","198638","198662","225673","247146","179020","198599","198601","184071","191105","NA","NA","2021","2020","2021","NA","225674","lineup1","no","2","no","1366"
"","white","no","xpyriment","legacy","legacy","0","no","relative","2","2","1","2","2","8","8","1","1","1","0","8","0","0","0","1","8","1","1","8","1","1","1","8","15","1","1","2","1","1","1","1","0","0","0","0","8","10/06/18 11:11:29","Executes Python code","yes","","lineup_videoFB.osexp","C:/Users/standalone/Desktop/FB/fb recordings","no","mono","no","24","no","black","no","yes","male","768","No","no","no","no","legacy","no","2","0","C:/Users/standalone/Desktop/FB/fb recordings/subject-110.csv","[member3]","5","2","6","4","3","1","xpyriment","Jazzy James","3.1.6","0","2","legacy","1024","2","48000","-16","experiment","110","even","legacy","[target1]","present","absent","2091","198601","188250","2091","198601","100215","266510","184070","188250","198536","NA","91131","NA","2020","2083","198599","263523","NA","NA","199015","198662","198638","198662","247559","266510","179020","198599","198601","184071","191105","NA","NA","2021","2020","2021","NA","247559","lineup1","no","3","no","1366"
"","white","no","xpyriment","legacy","legacy","0","no","relative","2","2","1","2","2","9","9","1","1","1","0","9","0","0","0","1","9","1","1","9","1","1","1","9","16","1","1","2","1","1","1","1","0","0","0","0","9","10/06/18 11:11:29","Executes Python code","yes","","lineup_videoFB.osexp","C:/Users/standalone/Desktop/FB/fb recordings","no","mono","no","24","no","black","no","yes","male","768","No","no","no","no","legacy","no","3","0","C:/Users/standalone/Desktop/FB/fb recordings/subject-110.csv","[member4]","5","2","6","4","3","1","xpyriment","Jazzy James","3.1.6","0","2","legacy","1024","2","48000","-16","experiment","110","even","legacy","[target1]","present","absent","2091","198601","188250","2091","198601","100215","285611","184070","188250","198536","NA","91131","NA","2020","2083","198599","282639","NA","NA","199015","198662","198638","198662","266936","285611","179020","198599","198601","184071","191105","NA","NA","2021","2020","2021","NA","266937","lineup1","no","4","no","1366"
"","white","no","xpyriment","legacy","legacy","0","no","relative","2","2","1","2","2","10","10","1","1","1","0","10","0","0","0","1","10","1","1","10","1","1","1","10","17","1","1","2","1","1","1","1","0","0","0","0","10","10/06/18 11:11:29","Executes Python code","yes","","lineup_videoFB.osexp","C:/Users/standalone/Desktop/FB/fb recordings","no","mono","no","24","no","black","no","yes","male","768","No","no","no","no","legacy","no","4","0","C:/Users/standalone/Desktop/FB/fb recordings/subject-110.csv","[member5]","5","2","6","4","3","1","xpyriment","Jazzy James","3.1.6","0","2","legacy","1024","2","48000","-16","experiment","110","even","legacy","[target1]","present","absent","2091","198601","188250","2091","198601","100215","295219","184070","188250","198536","NA","91131","NA","2020","2083","198599","292605","NA","NA","199015","198662","198638","198662","286018","295219","179020","198599","198601","184071","191105","NA","NA","2021","2020","2021","NA","286018","lineup1","no","5","no","1366"
"","white","no","xpyriment","legacy","legacy","0","no","relative","2","2","1","2","2","11","11","1","1","1","0","11","0","0","0","1","11","1","1","11","1","1","1","11","18","1","1","2","1","1","1","1","0","0","0","0","11","10/06/18 11:11:29","Executes Python code","yes","","lineup_videoFB.osexp","C:/Users/standalone/Desktop/FB/fb recordings","no","mono","no","24","no","black","no","yes","male","768","No","no","no","no","legacy","no","5","0","C:/Users/standalone/Desktop/FB/fb recordings/subject-110.csv","[member6]","5","2","6","4","3","1","xpyriment","Jazzy James","3.1.6","0","2","legacy","1024","2","48000","-16","experiment","110","even","legacy","[target1]","present","absent","2091","198601","188250","2091","198601","100215","315264","184070","188250","198536","NA","91131","NA","2020","2083","198599","311557","NA","NA","199015","198662","198638","198662","295616","315264","179020","198599","198601","184071","191105","NA","NA","2021","2020","2021","NA","295617","lineup1","no","6","no","1366"
"","white","no","xpyriment","legacy","legacy","0","no","relative","2","2","1","2","2","11","11","1","1","1","0","11","0","0","0","1","11","1","1","11","1","1","1","11","18","1","1","2","1","1","1","1","0","0","0","0","11","10/06/18 11:11:29","Executes Python code","yes","","lineup_videoFB.osexp","C:/Users/standalone/Desktop/FB/fb recordings","no","mono","no","24","no","black","no","yes","male","768","No","No","no","No","legacy","no","5","0","C:/Users/standalone/Desktop/FB/fb recordings/subject-110.csv","[member6]","5","2","6","4","3","1","xpyriment","Jazzy James","3.1.6","0","2","legacy","1024","2","48000","-16","experiment","110","even","legacy","[target1]","present","absent","2091","198601","323577","2091","198601","100215","315264","323577","188250","331770","NA","91131","NA","2020","2083","198599","311557","NA","NA","199015","198662","198638","198662","295616","331770","315312","198599","198601","184071","325850","NA","NA","2021","2020","2021","NA","295617","lineup1","no","6","no","1366"
"","white","no","xpyriment","legacy","legacy","0","no","relative","2","2","1","2","2","11","11","1","1","1","0","11","0","0","0","1","11","1","1","11","1","1","1","11","18","1","1","2","1","1","1","1","0","0","0","0","11","10/06/18 11:11:29","Executes Python code","yes","","lineup_videoFB.osexp","C:/Users/standalone/Desktop/FB/fb recordings","no","mono","no","24","no","black","no","yes","male","768","No","No","no","No","legacy","10am","5","0","C:/Users/standalone/Desktop/FB/fb recordings/subject-110.csv","[member6]","5","2","6","4","3","1","xpyriment","Jazzy James","3.1.6","0","2","legacy","1024","2","48000","-16","experiment","110","even","legacy","[target1]","present","absent","2091","198601","323577","2091","198601","100215","315264","323577","188250","331770","338118","91131","338118","2020","2083","198599","311557","NA","NA","199015","198662","198638","198662","295616","340427","315312","198599","198601","184071","325850","NA","NA","2021","2020","2021","331829","295617","lineup1","no","6","no","1366"
