"_prepare","background","bidi","canvas_backend","clock_backend","color_backend","compensation","confidence_immediate","coordinates","count_TA_sequence_setting","count_TP_sequence_setting","count_admin_check","count_check_TA","count_check_TP","count_check_confidence_imm","count_check_identification","count_check_made_identification","count_check_multiple_identification","count_check_proceeding_identification","count_check_time_of_exposure","count_confidence_imm","count_end_of_experiment","count_experiment","count_gender_lineup_loop","count_gender_randomization_sequence","count_identification_task","count_instructions_after_multiple","count_instructions_after_proceed_identification","count_instructions_before_view","count_lineup_loop","count_lineup_procedure_loop","count_lineup_procedure_sequence","count_lineup_sequence","count_logger","count_made_identification","count_member_randomization_loop","count_member_randomization_sequence","count_multiple_identification","count_proceed_identification","count_repeat_lineup_sequence_identification","count_repeat_lineup_sequence_multiple","count_target_setting","count_target_setting_loop","count_target_setting_sequence","count_time_of_exposure","count_video","datetime","description","disable_garbage_collection","empty_column","experiment_file","experiment_path","font_bold","font_family","font_italic","font_size","font_underline","foreground","form_clicks","fullscreen","gender","height","identification","identification_made","identification_multiple","identification_proceed","keyboard_backend","lecture_time","live_row","live_row_target_setting_loop","logfile","member","member1","member2","member3","member4","member5","member6","mouse_backend","opensesame_codename","opensesame_version","repeat_cycle","round_decimals","sampler_backend","sound_buf_size","sound_channels","sound_freq","sound_sample_size","start","subject_nr","subject_parity","synth_backend","target","target1","target2","time_TA_sequence_setting","time_TP_sequence_setting","time_admin_check","time_check_TA","time_check_TP","time_check_confidence_imm","time_check_identification","time_check_made_identification","time_check_multiple_identification","time_check_proceeding_identification","time_check_time_of_exposure","time_confidence_imm","time_end_of_experiment","time_experiment","time_gender_lineup_loop","time_gender_randomization_sequence","time_identification_task","time_instructions_after_multiple","time_instructions_after_proceed_identification","time_instructions_before_view","time_lineup_loop","time_lineup_procedure_loop","time_lineup_procedure_sequence","time_lineup_sequence","time_logger","time_made_identification","time_member_randomization_loop","time_member_randomization_sequence","time_multiple_identification","time_proceed_identification","time_repeat_lineup_sequence_identification","time_repeat_lineup_sequence_multiple","time_target_setting","time_target_setting_loop","time_target_setting_sequence","time_time_of_exposure","time_video","title","transparent_variables","trial","uniform_coordinates","width"
"","white","no","xpyriment","legacy","legacy","0","NA","relative","NA","NA","NA","NA","NA","NA","NA","NA","NA","NA","0","NA","0","0","0","NA","NA","NA","NA","NA","NA","NA","NA","NA","1","NA","NA","NA","NA","NA","NA","NA","0","0","0","0","NA","11/10/18 12:42:24","Executes Python code","yes","","lineup_videoFB.osexp","C:/Users/standalone/Desktop/Sat 10 Nov FB 1.26","no","mono","no","24","no","black","no","yes","NA","650","NA","NA","NA","NA","legacy","no","0","0","C:/Users/standalone/Desktop/Sat 10 Nov FB 1.26/subject-108.csv","NA","NA","NA","NA","NA","NA","NA","xpyriment","Jazzy James","3.1.6","0","2","legacy","1024","2","48000","-16","experiment","108","even","legacy","NA","present","absent","NA","NA","NA","NA","NA","NA","NA","NA","NA","NA","NA","NA","NA","3400","NA","NA","NA","NA","NA","NA","NA","NA","NA","NA","3401","NA","NA","NA","NA","NA","NA","NA","3401","3400","3401","NA","NA","lineup1","no","NA","no","1366"
"","white","no","xpyriment","legacy","legacy","0","NA","relative","1","1","NA","1","1","NA","NA","NA","NA","NA","0","NA","0","0","0","0","NA","NA","NA","NA","NA","0","NA","NA","3","NA","0","1","NA","NA","NA","NA","0","0","0","0","NA","11/10/18 12:42:24","Executes Python code","yes","","lineup_videoFB.osexp","C:/Users/standalone/Desktop/Sat 10 Nov FB 1.26","no","mono","no","24","no","black","no","yes","male","650","NA","NA","NA","NA","legacy","no","0","0","C:/Users/standalone/Desktop/Sat 10 Nov FB 1.26/subject-108.csv","NA","5","1","6","4","3","2","xpyriment","Jazzy James","3.1.6","0","2","legacy","1024","2","48000","-16","experiment","108","even","legacy","[target1]","present","absent","NA","3460","NA","NA","3460","NA","NA","NA","NA","NA","NA","NA","NA","3400","3452","3455","NA","NA","NA","NA","NA","NA","NA","NA","3460","NA","3455","3460","NA","NA","NA","NA","3401","3400","3401","NA","NA","lineup1","no","NA","no","1366"
"","white","no","xpyriment","legacy","legacy","0","NA","relative","1","1","NA","1","1","NA","NA","NA","NA","NA","0","NA","0","0","0","0","NA","NA","NA","NA","NA","0","NA","NA","3","NA","0","1","NA","NA","NA","NA","0","0","0","0","NA","11/10/18 12:42:24","Executes Python code","yes","","lineup_videoFB.osexp","C:/Users/standalone/Desktop/Sat 10 Nov FB 1.26","no","mono","no","24","no","black","no","yes","male","650","NA","NA","NA","NA","legacy","no","0","0","C:/Users/standalone/Desktop/Sat 10 Nov FB 1.26/subject-108.csv","NA","5","1","6","4","3","2","xpyriment","Jazzy James","3.1.6","0","2","legacy","1024","2","48000","-16","experiment","108","even","legacy","[target1]","present","absent","NA","3460","NA","NA","3460","NA","NA","NA","NA","NA","NA","NA","NA","3400","3452","3455","NA","NA","NA","NA","NA","NA","NA","NA","3494","NA","3455","3460","NA","NA","NA","NA","3401","3400","3401","NA","NA","lineup1","no","NA","no","1366"
"","white","no","xpyriment","legacy","legacy","0","no","relative","1","1","0","1","1","0","0","0","0","0","0","0","0","0","0","0","0","0","0","0","0","0","0","0","5","0","0","1","0","0","0","0","0","0","0","0","0","11/10/18 12:42:24","Executes Python code","yes","","lineup_videoFB.osexp","C:/Users/standalone/Desktop/Sat 10 Nov FB 1.26","no","mono","no","24","no","black","no","yes","male","650","No","no","no","no","legacy","no","0","0","C:/Users/standalone/Desktop/Sat 10 Nov FB 1.26/subject-108.csv","[member1]","5","1","6","4","3","2","xpyriment","Jazzy James","3.1.6","0","2","legacy","1024","2","48000","-16","experiment","108","even","legacy","[target1]","present","absent","NA","3460","NA","NA","3460","NA","37575","NA","NA","NA","NA","NA","NA","3400","3452","3455","33989","NA","NA","4189","3555","3529","3555","4189","37576","NA","3455","3460","NA","NA","NA","NA","3401","3400","3401","NA","26070","lineup1","no","1","no","1366"
"","white","no","xpyriment","legacy","legacy","0","no","relative","1","1","0","1","1","1","1","0","0","0","0","1","0","0","0","0","1","0","0","1","0","0","0","1","6","0","0","1","0","0","0","0","0","0","0","0","1","11/10/18 12:42:24","Executes Python code","yes","","lineup_videoFB.osexp","C:/Users/standalone/Desktop/Sat 10 Nov FB 1.26","no","mono","no","24","no","black","no","yes","male","650","No","no","no","no","legacy","no","1","0","C:/Users/standalone/Desktop/Sat 10 Nov FB 1.26/subject-108.csv","[member2]","5","1","6","4","3","2","xpyriment","Jazzy James","3.1.6","0","2","legacy","1024","2","48000","-16","experiment","108","even","legacy","[target1]","present","absent","NA","3460","NA","NA","3460","NA","46761","NA","NA","NA","NA","NA","NA","3400","3452","3455","44188","NA","NA","4189","3555","3529","3555","38074","46762","NA","3455","3460","NA","NA","NA","NA","3401","3400","3401","NA","38074","lineup1","no","2","no","1366"
"","white","no","xpyriment","legacy","legacy","0","no","relative","1","1","0","1","1","2","2","0","0","0","0","2","0","0","0","0","2","0","0","2","0","0","0","2","7","0","0","1","0","0","0","0","0","0","0","0","2","11/10/18 12:42:24","Executes Python code","yes","","lineup_videoFB.osexp","C:/Users/standalone/Desktop/Sat 10 Nov FB 1.26","no","mono","no","24","no","black","no","yes","male","650","Not sure","no","no","no","legacy","no","2","0","C:/Users/standalone/Desktop/Sat 10 Nov FB 1.26/subject-108.csv","[member3]","5","1","6","4","3","2","xpyriment","Jazzy James","3.1.6","0","2","legacy","1024","2","48000","-16","experiment","108","even","legacy","[target1]","present","absent","NA","3460","NA","NA","3460","NA","75546","NA","NA","NA","NA","NA","NA","3400","3452","3455","72667","NA","NA","4189","3555","3529","3555","47291","75546","NA","3455","3460","NA","NA","NA","NA","3401","3400","3401","NA","47291","lineup1","no","3","no","1366"
"","white","no","xpyriment","legacy","legacy","0","no","relative","1","1","0","1","1","3","3","0","0","0","0","3","0","0","0","0","3","0","0","3","0","0","0","3","8","0","0","1","0","0","0","0","0","0","0","0","3","11/10/18 12:42:24","Executes Python code","yes","","lineup_videoFB.osexp","C:/Users/standalone/Desktop/Sat 10 Nov FB 1.26","no","mono","no","24","no","black","no","yes","male","650","No","no","no","no","legacy","no","3","0","C:/Users/standalone/Desktop/Sat 10 Nov FB 1.26/subject-108.csv","[member4]","5","1","6","4","3","2","xpyriment","Jazzy James","3.1.6","0","2","legacy","1024","2","48000","-16","experiment","108","even","legacy","[target1]","present","absent","NA","3460","NA","NA","3460","NA","92889","NA","NA","NA","NA","NA","NA","3400","3452","3455","90164","NA","NA","4189","3555","3529","3555","76047","92889","NA","3455","3460","NA","NA","NA","NA","3401","3400","3401","NA","76047","lineup1","no","4","no","1366"
"","white","no","xpyriment","legacy","legacy","0","no","relative","1","1","0","1","1","4","4","0","0","0","0","4","0","0","0","0","4","0","0","4","0","0","0","4","9","0","0","1","0","0","0","0","0","0","0","0","4","11/10/18 12:42:24","Executes Python code","yes","","lineup_videoFB.osexp","C:/Users/standalone/Desktop/Sat 10 Nov FB 1.26","no","mono","no","24","no","black","no","yes","male","650","No","no","no","no","legacy","no","4","0","C:/Users/standalone/Desktop/Sat 10 Nov FB 1.26/subject-108.csv","[member5]","5","1","6","4","3","2","xpyriment","Jazzy James","3.1.6","0","2","legacy","1024","2","48000","-16","experiment","108","even","legacy","[target1]","present","absent","NA","3460","NA","NA","3460","NA","102904","NA","NA","NA","NA","NA","NA","3400","3452","3455","100339","NA","NA","4189","3555","3529","3555","93422","102904","NA","3455","3460","NA","NA","NA","NA","3401","3400","3401","NA","93423","lineup1","no","5","no","1366"
"","white","no","xpyriment","legacy","legacy","0","no","relative","1","1","0","1","1","5","5","0","0","0","0","5","0","0","0","0","5","0","0","5","0","0","0","5","10","0","0","1","0","0","0","0","0","0","0","0","5","11/10/18 12:42:24","Executes Python code","yes","","lineup_videoFB.osexp","C:/Users/standalone/Desktop/Sat 10 Nov FB 1.26","no","mono","no","24","no","black","no","yes","male","650","No","no","no","no","legacy","no","5","0","C:/Users/standalone/Desktop/Sat 10 Nov FB 1.26/subject-108.csv","[member6]","5","1","6","4","3","2","xpyriment","Jazzy James","3.1.6","0","2","legacy","1024","2","48000","-16","experiment","108","even","legacy","[target1]","present","absent","NA","3460","NA","NA","3460","NA","119849","NA","NA","NA","NA","NA","NA","3400","3452","3455","117285","NA","NA","4189","3555","3529","3555","103440","119849","NA","3455","3460","NA","NA","NA","NA","3401","3400","3401","NA","103441","lineup1","no","6","no","1366"
"","white","no","xpyriment","legacy","legacy","0","no","relative","1","1","0","1","1","5","5","0","0","0","0","5","0","0","0","0","5","0","0","5","0","0","0","5","10","0","0","1","0","0","0","0","0","0","0","0","5","11/10/18 12:42:24","Executes Python code","yes","","lineup_videoFB.osexp","C:/Users/standalone/Desktop/Sat 10 Nov FB 1.26","no","mono","no","24","no","black","no","yes","male","650","No","No","no","No","legacy","no","5","0","C:/Users/standalone/Desktop/Sat 10 Nov FB 1.26/subject-108.csv","[member6]","5","1","6","4","3","2","xpyriment","Jazzy James","3.1.6","0","2","legacy","1024","2","48000","-16","experiment","108","even","legacy","[target1]","present","absent","NA","3460","134746","NA","3460","NA","119849","134746","NA","148809","NA","NA","NA","3400","3452","3455","117285","NA","NA","4189","3555","3529","3555","103440","148809","119886","3455","3460","NA","144208","NA","NA","3401","3400","3401","NA","103441","lineup1","no","6","no","1366"
"","white","no","xpyriment","legacy","legacy","0","no","relative","2","2","0","2","2","5","5","0","0","0","0","5","0","0","0","1","5","0","0","5","0","1","0","5","11","0","1","2","0","0","0","0","0","0","0","0","5","11/10/18 12:42:24","Executes Python code","yes","","lineup_videoFB.osexp","C:/Users/standalone/Desktop/Sat 10 Nov FB 1.26","no","mono","no","24","no","black","no","yes","female","650","No","No","no","No","legacy","no","0","0","C:/Users/standalone/Desktop/Sat 10 Nov FB 1.26/subject-108.csv","[member6]","4","7","5","3","1","2","xpyriment","Jazzy James","3.1.6","0","2","legacy","1024","2","48000","-16","experiment","108","even","legacy","[target2]","present","absent","148887","3460","134746","148887","3460","NA","119849","134746","NA","148809","NA","NA","NA","3400","3452","148885","117285","NA","NA","4189","3555","3529","3555","103440","148887","119886","148885","148887","NA","144208","NA","NA","3401","3400","3401","NA","103441","lineup1","no","6","no","1366"
"","white","no","xpyriment","legacy","legacy","0","no","relative","2","2","1","2","2","6","6","1","1","1","0","6","0","0","0","1","6","1","1","6","1","1","1","6","13","1","1","2","1","1","1","1","0","0","0","0","6","11/10/18 12:42:24","Executes Python code","yes","","lineup_videoFB.osexp","C:/Users/standalone/Desktop/Sat 10 Nov FB 1.26","no","mono","no","24","no","black","no","yes","female","650","No","no","no","no","legacy","no","0","0","C:/Users/standalone/Desktop/Sat 10 Nov FB 1.26/subject-108.csv","[member1]","4","7","5","3","1","2","xpyriment","Jazzy James","3.1.6","0","2","legacy","1024","2","48000","-16","experiment","108","even","legacy","[target2]","present","absent","148887","3460","134746","148887","3460","NA","165898","134746","NA","148809","NA","NA","NA","3400","3452","148885","163670","NA","NA","149412","148945","148918","148945","149412","165898","119886","148885","148887","NA","144208","NA","NA","3401","3400","3401","NA","150898","lineup1","no","1","no","1366"
"","white","no","xpyriment","legacy","legacy","0","no","relative","2","2","1","2","2","7","7","1","1","1","0","7","0","0","0","1","7","1","1","7","1","1","1","7","14","1","1","2","1","1","1","1","0","0","0","0","7","11/10/18 12:42:24","Executes Python code","yes","","lineup_videoFB.osexp","C:/Users/standalone/Desktop/Sat 10 Nov FB 1.26","no","mono","no","24","no","black","no","yes","female","650","Not sure","no","no","no","legacy","no","1","0","C:/Users/standalone/Desktop/Sat 10 Nov FB 1.26/subject-108.csv","[member2]","4","7","5","3","1","2","xpyriment","Jazzy James","3.1.6","0","2","legacy","1024","2","48000","-16","experiment","108","even","legacy","[target2]","present","absent","148887","3460","134746","148887","3460","NA","192007","134746","NA","148809","NA","NA","NA","3400","3452","148885","189635","NA","NA","149412","148945","148918","148945","166424","192007","119886","148885","148887","NA","144208","NA","NA","3401","3400","3401","NA","166424","lineup1","no","2","no","1366"
"","white","no","xpyriment","legacy","legacy","0","no","relative","2","2","1","2","2","8","8","1","1","1","0","8","0","0","0","1","8","1","1","8","1","1","1","8","15","1","1","2","1","1","1","1","0","0","0","0","8","11/10/18 12:42:24","Executes Python code","yes","","lineup_videoFB.osexp","C:/Users/standalone/Desktop/Sat 10 Nov FB 1.26","no","mono","no","24","no","black","no","yes","female","650","No","no","no","no","legacy","no","2","0","C:/Users/standalone/Desktop/Sat 10 Nov FB 1.26/subject-108.csv","[member3]","4","7","5","3","1","2","xpyriment","Jazzy James","3.1.6","0","2","legacy","1024","2","48000","-16","experiment","108","even","legacy","[target2]","present","absent","148887","3460","134746","148887","3460","NA","213329","134746","NA","148809","NA","NA","NA","3400","3452","148885","211099","NA","NA","149412","148945","148918","148945","192527","213329","119886","148885","148887","NA","144208","NA","NA","3401","3400","3401","NA","192527","lineup1","no","3","no","1366"
"","white","no","xpyriment","legacy","legacy","0","no","relative","2","2","1","2","2","9","9","1","1","1","0","9","0","0","0","1","9","1","1","9","1","1","1","9","16","1","1","2","1","1","1","1","0","0","0","0","9","11/10/18 12:42:24","Executes Python code","yes","","lineup_videoFB.osexp","C:/Users/standalone/Desktop/Sat 10 Nov FB 1.26","no","mono","no","24","no","black","no","yes","female","650","No","no","no","no","legacy","no","3","0","C:/Users/standalone/Desktop/Sat 10 Nov FB 1.26/subject-108.csv","[member4]","4","7","5","3","1","2","xpyriment","Jazzy James","3.1.6","0","2","legacy","1024","2","48000","-16","experiment","108","even","legacy","[target2]","present","absent","148887","3460","134746","148887","3460","NA","224594","134746","NA","148809","NA","NA","NA","3400","3452","148885","222514","NA","NA","149412","148945","148918","148945","213826","224594","119886","148885","148887","NA","144208","NA","NA","3401","3400","3401","NA","213826","lineup1","no","4","no","1366"
"","white","no","xpyriment","legacy","legacy","0","70","relative","2","2","1","2","2","10","10","1","1","1","0","10","0","0","0","1","10","1","1","10","1","1","1","10","17","1","1","2","1","1","1","1","0","0","0","0","10","11/10/18 12:42:24","Executes Python code","yes","","lineup_videoFB.osexp","C:/Users/standalone/Desktop/Sat 10 Nov FB 1.26","no","mono","no","24","no","black","no","yes","female","650","Yes","no","no","no","legacy","no","4","0","C:/Users/standalone/Desktop/Sat 10 Nov FB 1.26/subject-108.csv","[member5]","4","7","5","3","1","2","xpyriment","Jazzy James","3.1.6","0","2","legacy","1024","2","48000","-16","experiment","108","even","legacy","[target2]","present","absent","148887","3460","134746","148887","3460","253920","248130","134746","NA","148809","NA","248130","NA","3400","3452","148885","245890","NA","NA","149412","148945","148918","148945","225076","253920","119886","148885","148887","NA","144208","NA","NA","3401","3400","3401","NA","225077","lineup1","no","5","no","1366"
"","white","no","xpyriment","legacy","legacy","0","no","relative","2","2","1","2","2","11","11","1","1","1","0","11","0","0","0","1","11","1","1","11","1","1","1","11","18","1","1","2","1","1","1","1","0","0","0","0","11","11/10/18 12:42:24","Executes Python code","yes","","lineup_videoFB.osexp","C:/Users/standalone/Desktop/Sat 10 Nov FB 1.26","no","mono","no","24","no","black","no","yes","female","650","No","no","no","no","legacy","no","5","0","C:/Users/standalone/Desktop/Sat 10 Nov FB 1.26/subject-108.csv","[member6]","4","7","5","3","1","2","xpyriment","Jazzy James","3.1.6","0","2","legacy","1024","2","48000","-16","experiment","108","even","legacy","[target2]","present","absent","148887","3460","134746","148887","3460","253920","264516","134746","NA","148809","NA","248130","NA","3400","3452","148885","261940","NA","NA","149412","148945","148918","148945","254458","264516","119886","148885","148887","NA","144208","NA","NA","3401","3400","3401","NA","254458","lineup1","no","6","no","1366"
"","white","no","xpyriment","legacy","legacy","0","no","relative","2","2","1","2","2","11","11","1","1","1","0","11","0","0","0","1","11","1","1","11","1","1","1","11","18","1","1","2","1","1","1","1","0","0","0","0","11","11/10/18 12:42:24","Executes Python code","yes","","lineup_videoFB.osexp","C:/Users/standalone/Desktop/Sat 10 Nov FB 1.26","no","mono","no","24","no","black","no","yes","female","650","No","Yes","One","No","legacy","no","5","0","C:/Users/standalone/Desktop/Sat 10 Nov FB 1.26/subject-108.csv","[member6]","4","7","5","3","1","2","xpyriment","Jazzy James","3.1.6","0","2","legacy","1024","2","48000","-16","experiment","108","even","legacy","[target2]","present","absent","148887","3460","271344","148887","3460","253920","264516","267673","271344","281302","NA","248130","NA","3400","3452","148885","261940","NA","NA","149412","148945","148918","148945","254458","281302","264553","148885","148887","267673","277841","NA","NA","3401","3400","3401","NA","254458","lineup1","no","6","no","1366"
"","white","no","xpyriment","legacy","legacy","0","no","relative","2","2","1","2","2","11","11","1","1","1","0","11","0","0","0","1","11","1","1","11","1","1","1","11","18","1","1","2","1","1","1","1","0","0","0","0","11","11/10/18 12:42:24","Executes Python code","yes","","lineup_videoFB.osexp","C:/Users/standalone/Desktop/Sat 10 Nov FB 1.26","no","mono","no","24","no","black","no","yes","female","650","No","Yes","One","No","legacy","12.15pm","5","0","C:/Users/standalone/Desktop/Sat 10 Nov FB 1.26/subject-108.csv","[member6]","4","7","5","3","1","2","xpyriment","Jazzy James","3.1.6","0","2","legacy","1024","2","48000","-16","experiment","108","even","legacy","[target2]","present","absent","148887","3460","271344","148887","3460","253920","264516","267673","271344","281302","295168","248130","295168","3400","3452","148885","261940","NA","NA","149412","148945","148918","148945","254458","296854","264553","148885","148887","267673","277841","NA","NA","3401","3400","3401","281372","254458","lineup1","no","6","no","1366"
