"_prepare","background","bidi","canvas_backend","clock_backend","color_backend","compensation","confidence_immediate","coordinates","count_TA_sequence_setting","count_TP_sequence_setting","count_admin_check","count_check_TA","count_check_TP","count_check_confidence_imm","count_check_identification","count_check_made_identification","count_check_multiple_identification","count_check_proceeding_identification","count_check_time_of_exposure","count_confidence_imm","count_end_of_experiment","count_experiment","count_gender_lineup_loop","count_gender_randomization_sequence","count_identification_task","count_instructions_after_multiple","count_instructions_after_proceed_identification","count_instructions_before_view","count_lineup_loop","count_lineup_procedure_loop","count_lineup_procedure_sequence","count_lineup_sequence","count_logger","count_made_identification","count_member_randomization_loop","count_member_randomization_sequence","count_multiple_identification","count_proceed_identification","count_repeat_lineup_sequence_identification","count_repeat_lineup_sequence_multiple","count_target_setting","count_target_setting_loop","count_target_setting_sequence","count_time_of_exposure","count_video","datetime","description","disable_garbage_collection","empty_column","experiment_file","experiment_path","font_bold","font_family","font_italic","font_size","font_underline","foreground","form_clicks","fullscreen","gender","height","identification","identification_made","identification_multiple","identification_proceed","keyboard_backend","lecture_time","live_row","live_row_target_setting_loop","logfile","member","member1","member2","member3","member4","member5","member6","mouse_backend","opensesame_codename","opensesame_version","repeat_cycle","round_decimals","sampler_backend","sound_buf_size","sound_channels","sound_freq","sound_sample_size","start","subject_nr","subject_parity","synth_backend","target","target1","target2","time_TA_sequence_setting","time_TP_sequence_setting","time_admin_check","time_check_TA","time_check_TP","time_check_confidence_imm","time_check_identification","time_check_made_identification","time_check_multiple_identification","time_check_proceeding_identification","time_check_time_of_exposure","time_confidence_imm","time_end_of_experiment","time_experiment","time_gender_lineup_loop","time_gender_randomization_sequence","time_identification_task","time_instructions_after_multiple","time_instructions_after_proceed_identification","time_instructions_before_view","time_lineup_loop","time_lineup_procedure_loop","time_lineup_procedure_sequence","time_lineup_sequence","time_logger","time_made_identification","time_member_randomization_loop","time_member_randomization_sequence","time_multiple_identification","time_proceed_identification","time_repeat_lineup_sequence_identification","time_repeat_lineup_sequence_multiple","time_target_setting","time_target_setting_loop","time_target_setting_sequence","time_time_of_exposure","time_video","title","transparent_variables","trial","uniform_coordinates","width"
"","white","no","xpyriment","legacy","legacy","0","NA","relative","NA","NA","NA","NA","NA","NA","NA","NA","NA","NA","0","NA","0","0","0","NA","NA","NA","NA","NA","NA","NA","NA","NA","1","NA","NA","NA","NA","NA","NA","NA","0","0","0","0","NA","11/10/18 12:49:40","Executes Python code","yes","","lineup_videoFB.osexp","C:/Users/standalone/Desktop/Sat 10 Nov FB 1.26","no","mono","no","24","no","black","no","yes","NA","650","NA","NA","NA","NA","legacy","no","0","0","C:/Users/standalone/Desktop/Sat 10 Nov FB 1.26/subject-111.csv","NA","NA","NA","NA","NA","NA","NA","xpyriment","Jazzy James","3.1.6","0","2","legacy","1024","2","48000","-16","experiment","111","odd","legacy","NA","present","absent","NA","NA","NA","NA","NA","NA","NA","NA","NA","NA","NA","NA","NA","3449","NA","NA","NA","NA","NA","NA","NA","NA","NA","NA","3451","NA","NA","NA","NA","NA","NA","NA","3451","3449","3451","NA","NA","lineup1","no","NA","no","1366"
"","white","no","xpyriment","legacy","legacy","0","NA","relative","0","0","NA","0","0","NA","NA","NA","NA","NA","0","NA","0","0","0","0","NA","NA","NA","NA","NA","0","NA","NA","2","NA","0","0","NA","NA","NA","NA","0","0","0","0","NA","11/10/18 12:49:40","Executes Python code","yes","","lineup_videoFB.osexp","C:/Users/standalone/Desktop/Sat 10 Nov FB 1.26","no","mono","no","24","no","black","no","yes","male","650","NA","NA","NA","NA","legacy","no","0","0","C:/Users/standalone/Desktop/Sat 10 Nov FB 1.26/subject-111.csv","NA","1","4","3","5","6","2","xpyriment","Jazzy James","3.1.6","0","2","legacy","1024","2","48000","-16","experiment","111","odd","legacy","[target1]","present","absent","NA","3512","NA","NA","3512","NA","NA","NA","NA","NA","NA","NA","NA","3449","3507","3510","NA","NA","NA","NA","NA","NA","NA","NA","3512","NA","3510","3512","NA","NA","NA","NA","3451","3449","3451","NA","NA","lineup1","no","NA","no","1366"
"","white","no","xpyriment","legacy","legacy","0","70","relative","0","0","0","0","0","0","0","0","0","0","0","0","0","0","0","0","0","0","0","0","0","0","0","0","4","0","0","0","0","0","0","0","0","0","0","0","0","11/10/18 12:49:40","Executes Python code","yes","","lineup_videoFB.osexp","C:/Users/standalone/Desktop/Sat 10 Nov FB 1.26","no","mono","no","24","no","black","no","yes","male","650","Yes","no","no","no","legacy","no","0","0","C:/Users/standalone/Desktop/Sat 10 Nov FB 1.26/subject-111.csv","[member1]","1","4","3","5","6","2","xpyriment","Jazzy James","3.1.6","0","2","legacy","1024","2","48000","-16","experiment","111","odd","legacy","[target1]","present","absent","NA","3512","NA","NA","3512","86654","78399","NA","NA","NA","NA","78399","NA","3449","3507","3510","68660","NA","NA","4187","3574","3548","3574","4187","86654","NA","3510","3512","NA","NA","NA","NA","3451","3449","3451","NA","29920","lineup1","no","1","no","1366"
"","white","no","xpyriment","legacy","legacy","0","no","relative","0","0","0","0","0","1","1","0","0","0","0","1","0","0","0","0","1","0","0","1","0","0","0","1","5","0","0","0","0","0","0","0","0","0","0","0","1","11/10/18 12:49:40","Executes Python code","yes","","lineup_videoFB.osexp","C:/Users/standalone/Desktop/Sat 10 Nov FB 1.26","no","mono","no","24","no","black","no","yes","male","650","No","no","no","no","legacy","no","1","0","C:/Users/standalone/Desktop/Sat 10 Nov FB 1.26/subject-111.csv","[member2]","1","4","3","5","6","2","xpyriment","Jazzy James","3.1.6","0","2","legacy","1024","2","48000","-16","experiment","111","odd","legacy","[target1]","present","absent","NA","3512","NA","NA","3512","86654","91827","NA","NA","NA","NA","78399","NA","3449","3507","3510","88945","NA","NA","4187","3574","3548","3574","87174","91827","NA","3510","3512","NA","NA","NA","NA","3451","3449","3451","NA","87174","lineup1","no","2","no","1366"
"","white","no","xpyriment","legacy","legacy","0","no","relative","0","0","0","0","0","2","2","0","0","0","0","2","0","0","0","0","2","0","0","2","0","0","0","2","6","0","0","0","0","0","0","0","0","0","0","0","2","11/10/18 12:49:40","Executes Python code","yes","","lineup_videoFB.osexp","C:/Users/standalone/Desktop/Sat 10 Nov FB 1.26","no","mono","no","24","no","black","no","yes","male","650","No","no","no","no","legacy","no","2","0","C:/Users/standalone/Desktop/Sat 10 Nov FB 1.26/subject-111.csv","[member3]","1","4","3","5","6","2","xpyriment","Jazzy James","3.1.6","0","2","legacy","1024","2","48000","-16","experiment","111","odd","legacy","[target1]","present","absent","NA","3512","NA","NA","3512","86654","102912","NA","NA","NA","NA","78399","NA","3449","3507","3510","100131","NA","NA","4187","3574","3548","3574","92364","102912","NA","3510","3512","NA","NA","NA","NA","3451","3449","3451","NA","92364","lineup1","no","3","no","1366"
"","white","no","xpyriment","legacy","legacy","0","no","relative","0","0","0","0","0","3","3","0","0","0","0","3","0","0","0","0","3","0","0","3","0","0","0","3","7","0","0","0","0","0","0","0","0","0","0","0","3","11/10/18 12:49:40","Executes Python code","yes","","lineup_videoFB.osexp","C:/Users/standalone/Desktop/Sat 10 Nov FB 1.26","no","mono","no","24","no","black","no","yes","male","650","No","no","no","no","legacy","no","3","0","C:/Users/standalone/Desktop/Sat 10 Nov FB 1.26/subject-111.csv","[member4]","1","4","3","5","6","2","xpyriment","Jazzy James","3.1.6","0","2","legacy","1024","2","48000","-16","experiment","111","odd","legacy","[target1]","present","absent","NA","3512","NA","NA","3512","86654","111199","NA","NA","NA","NA","78399","NA","3449","3507","3510","108601","NA","NA","4187","3574","3548","3574","103429","111199","NA","3510","3512","NA","NA","NA","NA","3451","3449","3451","NA","103429","lineup1","no","4","no","1366"
"","white","no","xpyriment","legacy","legacy","0","no","relative","0","0","0","0","0","4","4","0","0","0","0","4","0","0","0","0","4","0","0","4","0","0","0","4","8","0","0","0","0","0","0","0","0","0","0","0","4","11/10/18 12:49:40","Executes Python code","yes","","lineup_videoFB.osexp","C:/Users/standalone/Desktop/Sat 10 Nov FB 1.26","no","mono","no","24","no","black","no","yes","male","650","No","no","no","no","legacy","no","4","0","C:/Users/standalone/Desktop/Sat 10 Nov FB 1.26/subject-111.csv","[member5]","1","4","3","5","6","2","xpyriment","Jazzy James","3.1.6","0","2","legacy","1024","2","48000","-16","experiment","111","odd","legacy","[target1]","present","absent","NA","3512","NA","NA","3512","86654","116195","NA","NA","NA","NA","78399","NA","3449","3507","3510","113955","NA","NA","4187","3574","3548","3574","111717","116195","NA","3510","3512","NA","NA","NA","NA","3451","3449","3451","NA","111718","lineup1","no","5","no","1366"
"","white","no","xpyriment","legacy","legacy","0","no","relative","0","0","0","0","0","5","5","0","0","0","0","5","0","0","0","0","5","0","0","5","0","0","0","5","9","0","0","0","0","0","0","0","0","0","0","0","5","11/10/18 12:49:40","Executes Python code","yes","","lineup_videoFB.osexp","C:/Users/standalone/Desktop/Sat 10 Nov FB 1.26","no","mono","no","24","no","black","no","yes","male","650","No","no","no","no","legacy","no","5","0","C:/Users/standalone/Desktop/Sat 10 Nov FB 1.26/subject-111.csv","[member6]","1","4","3","5","6","2","xpyriment","Jazzy James","3.1.6","0","2","legacy","1024","2","48000","-16","experiment","111","odd","legacy","[target1]","present","absent","NA","3512","NA","NA","3512","86654","133063","NA","NA","NA","NA","78399","NA","3449","3507","3510","130792","NA","NA","4187","3574","3548","3574","116723","133063","NA","3510","3512","NA","NA","NA","NA","3451","3449","3451","NA","116723","lineup1","no","6","no","1366"
"","white","no","xpyriment","legacy","legacy","0","no","relative","0","0","0","0","0","5","5","0","0","0","0","5","0","0","0","0","5","0","0","5","0","0","0","5","9","0","0","0","0","0","0","0","0","0","0","0","5","11/10/18 12:49:40","Executes Python code","yes","","lineup_videoFB.osexp","C:/Users/standalone/Desktop/Sat 10 Nov FB 1.26","no","mono","no","24","no","black","no","yes","male","650","No","Yes","One","No","legacy","no","5","0","C:/Users/standalone/Desktop/Sat 10 Nov FB 1.26/subject-111.csv","[member6]","1","4","3","5","6","2","xpyriment","Jazzy James","3.1.6","0","2","legacy","1024","2","48000","-16","experiment","111","odd","legacy","[target1]","present","absent","NA","3512","140708","NA","3512","86654","133063","136792","140708","152042","NA","78399","NA","3449","3507","3510","130792","NA","NA","4187","3574","3548","3574","116723","152042","133117","3510","3512","136792","146758","NA","NA","3451","3449","3451","NA","116723","lineup1","no","6","no","1366"
"","white","no","xpyriment","legacy","legacy","0","no","relative","2","2","0","2","2","5","5","0","0","0","0","5","0","0","0","1","5","0","0","5","0","1","0","5","11","0","1","2","0","0","0","0","0","0","0","0","5","11/10/18 12:49:40","Executes Python code","yes","","lineup_videoFB.osexp","C:/Users/standalone/Desktop/Sat 10 Nov FB 1.26","no","mono","no","24","no","black","no","yes","female","650","No","Yes","One","No","legacy","no","0","0","C:/Users/standalone/Desktop/Sat 10 Nov FB 1.26/subject-111.csv","[member6]","3","5","1","7","2","4","xpyriment","Jazzy James","3.1.6","0","2","legacy","1024","2","48000","-16","experiment","111","odd","legacy","[target2]","present","absent","152126","3512","140708","152127","3512","86654","133063","136792","140708","152042","NA","78399","NA","3449","3507","152122","130792","NA","NA","4187","3574","3548","3574","116723","152127","133117","152122","152126","136792","146758","NA","NA","3451","3449","3451","NA","116723","lineup1","no","6","no","1366"
"","white","no","xpyriment","legacy","legacy","0","no","relative","2","2","0","2","2","5","5","0","0","0","0","5","0","0","0","1","5","0","0","5","0","1","0","5","11","0","1","2","0","0","0","0","0","0","0","0","5","11/10/18 12:49:40","Executes Python code","yes","","lineup_videoFB.osexp","C:/Users/standalone/Desktop/Sat 10 Nov FB 1.26","no","mono","no","24","no","black","no","yes","female","650","No","Yes","One","No","legacy","no","0","0","C:/Users/standalone/Desktop/Sat 10 Nov FB 1.26/subject-111.csv","[member6]","3","5","1","7","2","4","xpyriment","Jazzy James","3.1.6","0","2","legacy","1024","2","48000","-16","experiment","111","odd","legacy","[target2]","present","absent","152126","3512","140708","152127","3512","86654","133063","136792","140708","152042","NA","78399","NA","3449","3507","152122","130792","NA","NA","4187","3574","3548","3574","116723","152162","133117","152122","152126","136792","146758","NA","NA","3451","3449","3451","NA","116723","lineup1","no","6","no","1366"
"","white","no","xpyriment","legacy","legacy","0","no","relative","2","2","1","2","2","6","6","1","1","1","0","6","0","0","0","1","6","1","1","6","1","1","1","6","13","1","1","2","1","1","1","1","0","0","0","0","6","11/10/18 12:49:40","Executes Python code","yes","","lineup_videoFB.osexp","C:/Users/standalone/Desktop/Sat 10 Nov FB 1.26","no","mono","no","24","no","black","no","yes","female","650","No","no","no","no","legacy","no","0","0","C:/Users/standalone/Desktop/Sat 10 Nov FB 1.26/subject-111.csv","[member1]","3","5","1","7","2","4","xpyriment","Jazzy James","3.1.6","0","2","legacy","1024","2","48000","-16","experiment","111","odd","legacy","[target2]","present","absent","152126","3512","140708","152127","3512","86654","158966","136792","140708","152042","NA","78399","NA","3449","3507","152122","156392","NA","NA","152670","152224","152197","152224","152670","158967","133117","152122","152126","136792","146758","NA","NA","3451","3449","3451","NA","153873","lineup1","no","1","no","1366"
"","white","no","xpyriment","legacy","legacy","0","no","relative","2","2","1","2","2","7","7","1","1","1","0","7","0","0","0","1","7","1","1","7","1","1","1","7","14","1","1","2","1","1","1","1","0","0","0","0","7","11/10/18 12:49:40","Executes Python code","yes","","lineup_videoFB.osexp","C:/Users/standalone/Desktop/Sat 10 Nov FB 1.26","no","mono","no","24","no","black","no","yes","female","650","No","no","no","no","legacy","no","1","0","C:/Users/standalone/Desktop/Sat 10 Nov FB 1.26/subject-111.csv","[member2]","3","5","1","7","2","4","xpyriment","Jazzy James","3.1.6","0","2","legacy","1024","2","48000","-16","experiment","111","odd","legacy","[target2]","present","absent","152126","3512","140708","152127","3512","86654","168805","136792","140708","152042","NA","78399","NA","3449","3507","152122","166208","NA","NA","152670","152224","152197","152224","159497","168805","133117","152122","152126","136792","146758","NA","NA","3451","3449","3451","NA","159497","lineup1","no","2","no","1366"
"","white","no","xpyriment","legacy","legacy","0","no","relative","2","2","1","2","2","8","8","1","1","1","0","8","0","0","0","1","8","1","1","8","1","1","1","8","15","1","1","2","1","1","1","1","0","0","0","0","8","11/10/18 12:49:40","Executes Python code","yes","","lineup_videoFB.osexp","C:/Users/standalone/Desktop/Sat 10 Nov FB 1.26","no","mono","no","24","no","black","no","yes","female","650","No","no","no","no","legacy","no","2","0","C:/Users/standalone/Desktop/Sat 10 Nov FB 1.26/subject-111.csv","[member3]","3","5","1","7","2","4","xpyriment","Jazzy James","3.1.6","0","2","legacy","1024","2","48000","-16","experiment","111","odd","legacy","[target2]","present","absent","152126","3512","140708","152127","3512","86654","182288","136792","140708","152042","NA","78399","NA","3449","3507","152122","178121","NA","NA","152670","152224","152197","152224","169291","182288","133117","152122","152126","136792","146758","NA","NA","3451","3449","3451","NA","169292","lineup1","no","3","no","1366"
"","white","no","xpyriment","legacy","legacy","0","no","relative","2","2","1","2","2","9","9","1","1","1","0","9","0","0","0","1","9","1","1","9","1","1","1","9","16","1","1","2","1","1","1","1","0","0","0","0","9","11/10/18 12:49:40","Executes Python code","yes","","lineup_videoFB.osexp","C:/Users/standalone/Desktop/Sat 10 Nov FB 1.26","no","mono","no","24","no","black","no","yes","female","650","No","no","no","no","legacy","no","3","0","C:/Users/standalone/Desktop/Sat 10 Nov FB 1.26/subject-111.csv","[member4]","3","5","1","7","2","4","xpyriment","Jazzy James","3.1.6","0","2","legacy","1024","2","48000","-16","experiment","111","odd","legacy","[target2]","present","absent","152126","3512","140708","152127","3512","86654","191328","136792","140708","152042","NA","78399","NA","3449","3507","152122","189064","NA","NA","152670","152224","152197","152224","182818","191328","133117","152122","152126","136792","146758","NA","NA","3451","3449","3451","NA","182818","lineup1","no","4","no","1366"
"","white","no","xpyriment","legacy","legacy","0","no","relative","2","2","1","2","2","10","10","1","1","1","0","10","0","0","0","1","10","1","1","10","1","1","1","10","17","1","1","2","1","1","1","1","0","0","0","0","10","11/10/18 12:49:40","Executes Python code","yes","","lineup_videoFB.osexp","C:/Users/standalone/Desktop/Sat 10 Nov FB 1.26","no","mono","no","24","no","black","no","yes","female","650","Not sure","no","no","no","legacy","no","4","0","C:/Users/standalone/Desktop/Sat 10 Nov FB 1.26/subject-111.csv","[member5]","3","5","1","7","2","4","xpyriment","Jazzy James","3.1.6","0","2","legacy","1024","2","48000","-16","experiment","111","odd","legacy","[target2]","present","absent","152126","3512","140708","152127","3512","86654","209426","136792","140708","152042","NA","78399","NA","3449","3507","152122","206811","NA","NA","152670","152224","152197","152224","191860","209426","133117","152122","152126","136792","146758","NA","NA","3451","3449","3451","NA","191860","lineup1","no","5","no","1366"
"","white","no","xpyriment","legacy","legacy","0","80","relative","2","2","1","2","2","11","11","1","1","1","0","11","0","0","0","1","11","1","1","11","1","1","1","11","18","1","1","2","1","1","1","1","0","0","0","0","11","11/10/18 12:49:40","Executes Python code","yes","","lineup_videoFB.osexp","C:/Users/standalone/Desktop/Sat 10 Nov FB 1.26","no","mono","no","24","no","black","no","yes","female","650","Yes","no","no","no","legacy","no","5","0","C:/Users/standalone/Desktop/Sat 10 Nov FB 1.26/subject-111.csv","[member6]","3","5","1","7","2","4","xpyriment","Jazzy James","3.1.6","0","2","legacy","1024","2","48000","-16","experiment","111","odd","legacy","[target2]","present","absent","152126","3512","140708","152127","3512","224309","220398","136792","140708","152042","NA","220398","NA","3449","3507","152122","218299","NA","NA","152670","152224","152197","152224","209956","224309","133117","152122","152126","136792","146758","NA","NA","3451","3449","3451","NA","209957","lineup1","no","6","no","1366"
"","white","no","xpyriment","legacy","legacy","0","80","relative","2","2","1","2","2","11","11","1","1","1","0","11","0","0","0","1","11","1","1","11","1","1","1","11","18","1","1","2","1","1","1","1","0","0","0","0","11","11/10/18 12:49:40","Executes Python code","yes","","lineup_videoFB.osexp","C:/Users/standalone/Desktop/Sat 10 Nov FB 1.26","no","mono","no","24","no","black","no","yes","female","650","Yes","Yes","One","No","legacy","no","5","0","C:/Users/standalone/Desktop/Sat 10 Nov FB 1.26/subject-111.csv","[member6]","3","5","1","7","2","4","xpyriment","Jazzy James","3.1.6","0","2","legacy","1024","2","48000","-16","experiment","111","odd","legacy","[target2]","present","absent","152126","3512","236241","152127","3512","224309","220398","229678","236241","243315","NA","220398","NA","3449","3507","152122","218299","NA","NA","152670","152224","152197","152224","209956","243315","224362","152122","152126","229678","238371","NA","NA","3451","3449","3451","NA","209957","lineup1","no","6","no","1366"
"","white","no","xpyriment","legacy","legacy","0","80","relative","2","2","1","2","2","11","11","1","1","1","0","11","0","0","0","1","11","1","1","11","1","1","1","11","18","1","1","2","1","1","1","1","0","0","0","0","11","11/10/18 12:49:40","Executes Python code","yes","","lineup_videoFB.osexp","C:/Users/standalone/Desktop/Sat 10 Nov FB 1.26","no","mono","no","24","no","black","no","yes","female","650","Yes","Yes","One","No","legacy","12.15pm","5","0","C:/Users/standalone/Desktop/Sat 10 Nov FB 1.26/subject-111.csv","[member6]","3","5","1","7","2","4","xpyriment","Jazzy James","3.1.6","0","2","legacy","1024","2","48000","-16","experiment","111","odd","legacy","[target2]","present","absent","152126","3512","236241","152127","3512","224309","220398","229678","236241","243315","248829","220398","248829","3449","3507","152122","218299","NA","NA","152670","152224","152197","152224","209956","250529","224362","152122","152126","229678","238371","NA","NA","3451","3449","3451","243377","209957","lineup1","no","6","no","1366"
