"_prepare"	"acc"	"accuracy"	"average_response_time"	"avg_rt"	"background"	"bidi"	"canvas_backend"	"clock_backend"	"color_backend"	"compensation"	"confidence_immediate"	"coordinates"	"correct"	"correct_live_view"	"count_admin_check"	"count_check_confidence_imm"	"count_check_identification"	"count_check_made_identification"	"count_check_multiple_identification"	"count_check_proceeding_identification"	"count_confidence_imm"	"count_end_of_experiment"	"count_experiment"	"count_identification_task"	"count_instructions"	"count_instructions_after_multiple"	"count_instructions_after_proceed_identification"	"count_instructions_before_view"	"count_instructions_sequence"	"count_lineup_loop"	"count_lineup_sequence"	"count_live_lineup"	"count_live_view"	"count_logger"	"count_made_identification"	"count_multiple_identification"	"count_proceed_identification"	"count_repeat_lineup_sequence_identification"	"count_repeat_lineup_sequence_multiple"	"count_setting_sequence"	"cursor_x"	"cursor_y"	"datetime"	"description"	"disable_garbage_collection"	"empty_column"	"experiment_file"	"experiment_path"	"font_bold"	"font_family"	"font_italic"	"font_size"	"font_underline"	"foreground"	"form_clicks"	"form_response"	"fullscreen"	"height"	"identification"	"identification_made"	"identification_multiple"	"identification_proceed"	"keyboard_backend"	"live_row"	"live_row_instructions"	"live_row_lineup_loop"	"live_row_live_lineup"	"logfile"	"member"	"mouse_backend"	"opensesame_codename"	"opensesame_version"	"repeat_cycle"	"response"	"response_live_view"	"response_time"	"response_time_live_view"	"round_decimals"	"sampler_backend"	"sound_buf_size"	"sound_channels"	"sound_freq"	"sound_sample_size"	"start"	"subject_nr"	"subject_parity"	"synth_backend"	"time_admin_check"	"time_check_confidence_imm"	"time_check_identification"	"time_check_made_identification"	"time_check_multiple_identification"	"time_check_proceeding_identification"	"time_confidence_imm"	"time_end_of_experiment"	"time_experiment"	"time_identification_task"	"time_instructions"	"time_instructions_after_multiple"	"time_instructions_after_proceed_identification"	"time_instructions_before_view"	"time_instructions_sequence"	"time_lineup_loop"	"time_lineup_sequence"	"time_live_lineup"	"time_live_view"	"time_logger"	"time_made_identification"	"time_multiple_identification"	"time_proceed_identification"	"time_repeat_lineup_sequence_identification"	"time_repeat_lineup_sequence_multiple"	"time_setting_sequence"	"title"	"total_correct"	"total_response_time"	"total_responses"	"transparent_variables"	"uniform_coordinates"	"width"
"1"	""	"undefined"	"undefined"	"undefined"	"undefined"	"white"	"no"	"xpyriment"	"legacy"	"legacy"	"0"	"no"	"relative"	"undefined"	"undefined"	"0"	"0"	"0"	"0"	"0"	"0"	"0"	"0"	"0"	"0"	"0"	"0"	"0"	"0"	"0"	"0"	"0"	"0"	"0"	"2"	"0"	"0"	"0"	"0"	"0"	"0"	"409"	"450"	"02/21/18 14:47:12"	"Executes Python code"	"yes"	""	"lineup_liveWOMEN_W.osexp"	"C:\Users\Laptop3\Desktop\Wednesday 2102"	"no"	"mono"	"no"	"24"	"no"	"black"	"no"	"Continue"	"yes"	"768"	"No"	"no"	"no"	"no"	"legacy"	"0"	"0"	"0"	"0"	"C:/Users/Laptop3/Desktop/Wednesday 2102/subject-61.csv"	"1"	"xpyriment"	"Jazzy James"	"3.1.4"	"0"	"1"	"1"	"15219"	"15219"	"2"	"legacy"	"1024"	"2"	"48000"	"-16"	"experiment"	"61"	"odd"	"legacy"	NA	NA	"61733"	NA	NA	NA	NA	NA	"1586"	"57959"	"1586"	NA	NA	"1591"	"1591"	"42671"	"42671"	"42652"	"42740"	"61733"	NA	NA	NA	NA	NA	"42739"	"lineup1"	"0"	"0"	"0"	"no"	"no"	"1366"
"2"	""	"undefined"	"undefined"	"undefined"	"undefined"	"white"	"no"	"xpyriment"	"legacy"	"legacy"	"0"	"80"	"relative"	"undefined"	"undefined"	"0"	"1"	"1"	"0"	"0"	"0"	"1"	"0"	"0"	"1"	"0"	"0"	"0"	"0"	"0"	"0"	"0"	"0"	"1"	"3"	"0"	"0"	"0"	"0"	"0"	"1"	"456"	"567"	"02/21/18 14:47:12"	"Executes Python code"	"yes"	""	"lineup_liveWOMEN_W.osexp"	"C:\Users\Laptop3\Desktop\Wednesday 2102"	"no"	"mono"	"no"	"24"	"no"	"black"	"no"	"Continue"	"yes"	"768"	"Yes"	"no"	"no"	"no"	"legacy"	"1"	"0"	"1"	"0"	"C:/Users/Laptop3/Desktop/Wednesday 2102/subject-61.csv"	"2"	"xpyriment"	"Jazzy James"	"3.1.4"	"0"	"1"	"1"	"4654"	"4654"	"2"	"legacy"	"1024"	"2"	"48000"	"-16"	"experiment"	"61"	"odd"	"legacy"	NA	"75876"	"71261"	NA	NA	NA	"71261"	NA	"1586"	"66496"	"1586"	NA	NA	"1591"	"1591"	"42671"	"42671"	"42652"	"61841"	"75876"	NA	NA	NA	NA	NA	"61840"	"lineup1"	"0"	"0"	"0"	"no"	"no"	"1366"
"3"	""	"undefined"	"undefined"	"undefined"	"undefined"	"white"	"no"	"xpyriment"	"legacy"	"legacy"	"0"	"no"	"relative"	"undefined"	"undefined"	"0"	"2"	"2"	"0"	"0"	"0"	"2"	"0"	"0"	"2"	"0"	"0"	"0"	"0"	"0"	"0"	"0"	"0"	"2"	"4"	"0"	"0"	"0"	"0"	"0"	"2"	"875"	"548"	"02/21/18 14:47:12"	"Executes Python code"	"yes"	""	"lineup_liveWOMEN_W.osexp"	"C:\Users\Laptop3\Desktop\Wednesday 2102"	"no"	"mono"	"no"	"24"	"no"	"black"	"no"	"Continue"	"yes"	"768"	"No"	"no"	"no"	"no"	"legacy"	"2"	"0"	"2"	"0"	"C:/Users/Laptop3/Desktop/Wednesday 2102/subject-61.csv"	"3"	"xpyriment"	"Jazzy James"	"3.1.4"	"0"	"1"	"1"	"12953"	"12953"	"2"	"legacy"	"1024"	"2"	"48000"	"-16"	"experiment"	"61"	"odd"	"legacy"	NA	"75876"	"91680"	NA	NA	NA	"71261"	NA	"1586"	"88935"	"1586"	NA	NA	"1591"	"1591"	"42671"	"42671"	"42652"	"75982"	"91680"	NA	NA	NA	NA	NA	"75981"	"lineup1"	"0"	"0"	"0"	"no"	"no"	"1366"
"4"	""	"undefined"	"undefined"	"undefined"	"undefined"	"white"	"no"	"xpyriment"	"legacy"	"legacy"	"0"	"no"	"relative"	"undefined"	"undefined"	"0"	"3"	"3"	"0"	"0"	"0"	"3"	"0"	"0"	"3"	"0"	"0"	"0"	"0"	"0"	"0"	"0"	"0"	"3"	"5"	"0"	"0"	"0"	"0"	"0"	"3"	"652"	"594"	"02/21/18 14:47:12"	"Executes Python code"	"yes"	""	"lineup_liveWOMEN_W.osexp"	"C:\Users\Laptop3\Desktop\Wednesday 2102"	"no"	"mono"	"no"	"24"	"no"	"black"	"no"	"Continue"	"yes"	"768"	"No"	"no"	"no"	"no"	"legacy"	"3"	"0"	"3"	"0"	"C:/Users/Laptop3/Desktop/Wednesday 2102/subject-61.csv"	"4"	"xpyriment"	"Jazzy James"	"3.1.4"	"0"	"1"	"1"	"12115"	"12115"	"2"	"legacy"	"1024"	"2"	"48000"	"-16"	"experiment"	"61"	"odd"	"legacy"	NA	"75876"	"108700"	NA	NA	NA	"71261"	NA	"1586"	"103903"	"1586"	NA	NA	"1591"	"1591"	"42671"	"42671"	"42652"	"91788"	"108700"	NA	NA	NA	NA	NA	"91786"	"lineup1"	"0"	"0"	"0"	"no"	"no"	"1366"
"5"	""	"undefined"	"undefined"	"undefined"	"undefined"	"white"	"no"	"xpyriment"	"legacy"	"legacy"	"0"	"no"	"relative"	"undefined"	"undefined"	"0"	"4"	"4"	"0"	"0"	"0"	"4"	"0"	"0"	"4"	"0"	"0"	"0"	"0"	"0"	"0"	"0"	"0"	"4"	"6"	"0"	"0"	"0"	"0"	"0"	"4"	"555"	"542"	"02/21/18 14:47:12"	"Executes Python code"	"yes"	""	"lineup_liveWOMEN_W.osexp"	"C:\Users\Laptop3\Desktop\Wednesday 2102"	"no"	"mono"	"no"	"24"	"no"	"black"	"no"	"Continue"	"yes"	"768"	"No"	"no"	"no"	"no"	"legacy"	"4"	"0"	"4"	"0"	"C:/Users/Laptop3/Desktop/Wednesday 2102/subject-61.csv"	"5"	"xpyriment"	"Jazzy James"	"3.1.4"	"0"	"1"	"1"	"9707"	"9707"	"2"	"legacy"	"1024"	"2"	"48000"	"-16"	"experiment"	"61"	"odd"	"legacy"	NA	"75876"	"121278"	NA	NA	NA	"71261"	NA	"1586"	"118511"	"1586"	NA	NA	"1591"	"1591"	"42671"	"42671"	"42652"	"108804"	"121278"	NA	NA	NA	NA	NA	"108802"	"lineup1"	"0"	"0"	"0"	"no"	"no"	"1366"
"6"	""	"undefined"	"undefined"	"undefined"	"undefined"	"white"	"no"	"xpyriment"	"legacy"	"legacy"	"0"	"no"	"relative"	"undefined"	"undefined"	"0"	"5"	"5"	"0"	"0"	"0"	"5"	"0"	"0"	"5"	"0"	"0"	"0"	"0"	"0"	"0"	"0"	"0"	"5"	"7"	"0"	"0"	"0"	"0"	"0"	"5"	"398"	"608"	"02/21/18 14:47:12"	"Executes Python code"	"yes"	""	"lineup_liveWOMEN_W.osexp"	"C:\Users\Laptop3\Desktop\Wednesday 2102"	"no"	"mono"	"no"	"24"	"no"	"black"	"no"	"Continue"	"yes"	"768"	"No"	"no"	"no"	"no"	"legacy"	"5"	"0"	"5"	"0"	"C:/Users/Laptop3/Desktop/Wednesday 2102/subject-61.csv"	"6"	"xpyriment"	"Jazzy James"	"3.1.4"	"0"	"1"	"1"	"5660"	"5660"	"2"	"legacy"	"1024"	"2"	"48000"	"-16"	"experiment"	"61"	"odd"	"legacy"	NA	"75876"	"129431"	NA	NA	NA	"71261"	NA	"1586"	"127047"	"1586"	NA	NA	"1591"	"1591"	"42671"	"42671"	"42652"	"121386"	"129431"	NA	NA	NA	NA	NA	"121385"	"lineup1"	"0"	"0"	"0"	"no"	"no"	"1366"
"7"	""	"undefined"	"undefined"	"undefined"	"undefined"	"white"	"no"	"xpyriment"	"legacy"	"legacy"	"0"	"no"	"relative"	"undefined"	"undefined"	"0"	"5"	"5"	"0"	"0"	"0"	"5"	"0"	"0"	"5"	"0"	"0"	"0"	"0"	"0"	"0"	"0"	"0"	"5"	"7"	"0"	"0"	"0"	"0"	"0"	"5"	"398"	"608"	"02/21/18 14:47:12"	"Executes Python code"	"yes"	""	"lineup_liveWOMEN_W.osexp"	"C:\Users\Laptop3\Desktop\Wednesday 2102"	"no"	"mono"	"no"	"24"	"no"	"black"	"no"	"Continue"	"yes"	"768"	"No"	"Yes"	"One"	"No"	"legacy"	"5"	"0"	"5"	"0"	"C:/Users/Laptop3/Desktop/Wednesday 2102/subject-61.csv"	"6"	"xpyriment"	"Jazzy James"	"3.1.4"	"0"	"1"	"1"	"5660"	"5660"	"2"	"legacy"	"1024"	"2"	"48000"	"-16"	"experiment"	"61"	"odd"	"legacy"	"138898"	"75876"	"129431"	"134754"	"138898"	"147861"	"71261"	NA	"1586"	"127047"	"1586"	NA	NA	"1591"	"1591"	"42671"	"42671"	"42652"	"121386"	"147861"	"129468"	"134754"	"141794"	NA	NA	"121385"	"lineup1"	"0"	"0"	"0"	"no"	"no"	"1366"
"8"	""	"undefined"	"undefined"	"undefined"	"undefined"	"white"	"no"	"xpyriment"	"legacy"	"legacy"	"0"	"no"	"relative"	"undefined"	"undefined"	"0"	"5"	"5"	"0"	"0"	"0"	"5"	"0"	"0"	"5"	"0"	"0"	"0"	"0"	"0"	"0"	"0"	"0"	"5"	"7"	"0"	"0"	"0"	"0"	"0"	"5"	"398"	"608"	"02/21/18 14:47:12"	"Executes Python code"	"yes"	""	"lineup_liveWOMEN_W.osexp"	"C:\Users\Laptop3\Desktop\Wednesday 2102"	"no"	"mono"	"no"	"24"	"no"	"black"	"no"	"Click to end"	"yes"	"768"	"No"	"Yes"	"One"	"No"	"legacy"	"5"	"0"	"5"	"0"	"C:/Users/Laptop3/Desktop/Wednesday 2102/subject-61.csv"	"6"	"xpyriment"	"Jazzy James"	"3.1.4"	"0"	"1"	"1"	"5660"	"5660"	"2"	"legacy"	"1024"	"2"	"48000"	"-16"	"experiment"	"61"	"odd"	"legacy"	"138898"	"75876"	"129431"	"134754"	"138898"	"147861"	"71261"	"147892"	"1586"	"127047"	"1586"	NA	NA	"1591"	"1591"	"42671"	"42671"	"42652"	"121386"	"169997"	"129468"	"134754"	"141794"	NA	NA	"121385"	"lineup1"	"0"	"0"	"0"	"no"	"no"	"1366"
"9"	""	"undefined"	"undefined"	"undefined"	"undefined"	"white"	"no"	"xpyriment"	"legacy"	"legacy"	"0"	"no"	"relative"	"undefined"	"undefined"	"0"	"0"	"0"	"0"	"0"	"0"	"0"	"0"	"0"	"0"	"0"	"0"	"0"	"0"	"0"	"0"	"0"	"0"	"0"	"2"	"0"	"0"	"0"	"0"	"0"	"0"	"677"	"767"	"02/21/18 14:39:15"	"Executes Python code"	"yes"	""	"lineup_liveWOMEN_W.osexp"	"C:\Users\Laptop3\Desktop\Wednesday 2102"	"no"	"mono"	"no"	"24"	"no"	"black"	"no"	"Continue"	"yes"	"768"	"No"	"no"	"no"	"no"	"legacy"	"0"	"0"	"0"	"0"	"C:/Users/Laptop3/Desktop/Wednesday 2102/subject-62.csv"	"1"	"xpyriment"	"Jazzy James"	"3.1.4"	"0"	"1"	"1"	"2674"	"2674"	"2"	"legacy"	"1024"	"2"	"48000"	"-16"	"experiment"	"62"	"even"	"legacy"	NA	NA	"64818"	NA	NA	NA	NA	NA	"1615"	"60203"	"1615"	NA	NA	"1620"	"1620"	"57462"	"57461"	"57442"	"57528"	"64818"	NA	NA	NA	NA	NA	"57527"	"lineup1"	"0"	"0"	"0"	"no"	"no"	"1366"
"10"	""	"undefined"	"undefined"	"undefined"	"undefined"	"white"	"no"	"xpyriment"	"legacy"	"legacy"	"0"	"no"	"relative"	"undefined"	"undefined"	"0"	"1"	"1"	"0"	"0"	"0"	"1"	"0"	"0"	"1"	"0"	"0"	"0"	"0"	"0"	"0"	"0"	"0"	"1"	"3"	"0"	"0"	"0"	"0"	"0"	"1"	"167"	"759"	"02/21/18 14:39:15"	"Executes Python code"	"yes"	""	"lineup_liveWOMEN_W.osexp"	"C:\Users\Laptop3\Desktop\Wednesday 2102"	"no"	"mono"	"no"	"24"	"no"	"black"	"no"	"Continue"	"yes"	"768"	"No"	"no"	"no"	"no"	"legacy"	"1"	"0"	"1"	"0"	"C:/Users/Laptop3/Desktop/Wednesday 2102/subject-62.csv"	"2"	"xpyriment"	"Jazzy James"	"3.1.4"	"0"	"1"	"1"	"11150"	"11150"	"2"	"legacy"	"1024"	"2"	"48000"	"-16"	"experiment"	"62"	"even"	"legacy"	NA	NA	"81540"	NA	NA	NA	NA	NA	"1615"	"76114"	"1615"	NA	NA	"1620"	"1620"	"57462"	"57461"	"57442"	"64963"	"81541"	NA	NA	NA	NA	NA	"64962"	"lineup1"	"0"	"0"	"0"	"no"	"no"	"1366"
"11"	""	"undefined"	"undefined"	"undefined"	"undefined"	"white"	"no"	"xpyriment"	"legacy"	"legacy"	"0"	"no"	"relative"	"undefined"	"undefined"	"0"	"2"	"2"	"0"	"0"	"0"	"2"	"0"	"0"	"2"	"0"	"0"	"0"	"0"	"0"	"0"	"0"	"0"	"2"	"4"	"0"	"0"	"0"	"0"	"0"	"2"	"852"	"579"	"02/21/18 14:39:15"	"Executes Python code"	"yes"	""	"lineup_liveWOMEN_W.osexp"	"C:\Users\Laptop3\Desktop\Wednesday 2102"	"no"	"mono"	"no"	"24"	"no"	"black"	"no"	"Continue"	"yes"	"768"	"Not sure"	"no"	"no"	"no"	"legacy"	"2"	"0"	"2"	"0"	"C:/Users/Laptop3/Desktop/Wednesday 2102/subject-62.csv"	"3"	"xpyriment"	"Jazzy James"	"3.1.4"	"0"	"1"	"1"	"13168"	"13168"	"2"	"legacy"	"1024"	"2"	"48000"	"-16"	"experiment"	"62"	"even"	"legacy"	NA	NA	"99155"	NA	NA	NA	NA	NA	"1615"	"94819"	"1615"	NA	NA	"1620"	"1620"	"57462"	"57461"	"57442"	"81650"	"99155"	NA	NA	NA	NA	NA	"81649"	"lineup1"	"0"	"0"	"0"	"no"	"no"	"1366"
"12"	""	"undefined"	"undefined"	"undefined"	"undefined"	"white"	"no"	"xpyriment"	"legacy"	"legacy"	"0"	"no"	"relative"	"undefined"	"undefined"	"0"	"3"	"3"	"0"	"0"	"0"	"3"	"0"	"0"	"3"	"0"	"0"	"0"	"0"	"0"	"0"	"0"	"0"	"3"	"5"	"0"	"0"	"0"	"0"	"0"	"3"	"693"	"561"	"02/21/18 14:39:15"	"Executes Python code"	"yes"	""	"lineup_liveWOMEN_W.osexp"	"C:\Users\Laptop3\Desktop\Wednesday 2102"	"no"	"mono"	"no"	"24"	"no"	"black"	"no"	"Continue"	"yes"	"768"	"No"	"no"	"no"	"no"	"legacy"	"3"	"0"	"3"	"0"	"C:/Users/Laptop3/Desktop/Wednesday 2102/subject-62.csv"	"4"	"xpyriment"	"Jazzy James"	"3.1.4"	"0"	"1"	"1"	"6251"	"6251"	"2"	"legacy"	"1024"	"2"	"48000"	"-16"	"experiment"	"62"	"even"	"legacy"	NA	NA	"107994"	NA	NA	NA	NA	NA	"1615"	"105514"	"1615"	NA	NA	"1620"	"1620"	"57462"	"57461"	"57442"	"99262"	"107994"	NA	NA	NA	NA	NA	"99261"	"lineup1"	"0"	"0"	"0"	"no"	"no"	"1366"
"13"	""	"undefined"	"undefined"	"undefined"	"undefined"	"white"	"no"	"xpyriment"	"legacy"	"legacy"	"0"	"no"	"relative"	"undefined"	"undefined"	"0"	"4"	"4"	"0"	"0"	"0"	"4"	"0"	"0"	"4"	"0"	"0"	"0"	"0"	"0"	"0"	"0"	"0"	"4"	"6"	"0"	"0"	"0"	"0"	"0"	"4"	"305"	"767"	"02/21/18 14:39:15"	"Executes Python code"	"yes"	""	"lineup_liveWOMEN_W.osexp"	"C:\Users\Laptop3\Desktop\Wednesday 2102"	"no"	"mono"	"no"	"24"	"no"	"black"	"no"	"Continue"	"yes"	"768"	"No"	"no"	"no"	"no"	"legacy"	"4"	"0"	"4"	"0"	"C:/Users/Laptop3/Desktop/Wednesday 2102/subject-62.csv"	"5"	"xpyriment"	"Jazzy James"	"3.1.4"	"0"	"1"	"1"	"17468"	"17468"	"2"	"legacy"	"1024"	"2"	"48000"	"-16"	"experiment"	"62"	"even"	"legacy"	NA	NA	"128042"	NA	NA	NA	NA	NA	"1615"	"125570"	"1615"	NA	NA	"1620"	"1620"	"57462"	"57461"	"57442"	"108101"	"128043"	NA	NA	NA	NA	NA	"108100"	"lineup1"	"0"	"0"	"0"	"no"	"no"	"1366"
"14"	""	"undefined"	"undefined"	"undefined"	"undefined"	"white"	"no"	"xpyriment"	"legacy"	"legacy"	"0"	"no"	"relative"	"undefined"	"undefined"	"0"	"5"	"5"	"0"	"0"	"0"	"5"	"0"	"0"	"5"	"0"	"0"	"0"	"0"	"0"	"0"	"0"	"0"	"5"	"7"	"0"	"0"	"0"	"0"	"0"	"5"	"715"	"767"	"02/21/18 14:39:15"	"Executes Python code"	"yes"	""	"lineup_liveWOMEN_W.osexp"	"C:\Users\Laptop3\Desktop\Wednesday 2102"	"no"	"mono"	"no"	"24"	"no"	"black"	"no"	"Continue"	"yes"	"768"	"No"	"no"	"no"	"no"	"legacy"	"5"	"0"	"5"	"0"	"C:/Users/Laptop3/Desktop/Wednesday 2102/subject-62.csv"	"6"	"xpyriment"	"Jazzy James"	"3.1.4"	"0"	"1"	"1"	"9604"	"9604"	"2"	"legacy"	"1024"	"2"	"48000"	"-16"	"experiment"	"62"	"even"	"legacy"	NA	NA	"140483"	NA	NA	NA	NA	NA	"1615"	"137754"	"1615"	NA	NA	"1620"	"1620"	"57462"	"57461"	"57442"	"128149"	"140484"	NA	NA	NA	NA	NA	"128148"	"lineup1"	"0"	"0"	"0"	"no"	"no"	"1366"
"15"	""	"undefined"	"undefined"	"undefined"	"undefined"	"white"	"no"	"xpyriment"	"legacy"	"legacy"	"0"	"no"	"relative"	"undefined"	"undefined"	"0"	"5"	"5"	"0"	"0"	"0"	"5"	"0"	"0"	"5"	"0"	"0"	"0"	"0"	"0"	"0"	"0"	"0"	"5"	"7"	"0"	"0"	"0"	"0"	"0"	"5"	"715"	"767"	"02/21/18 14:39:15"	"Executes Python code"	"yes"	""	"lineup_liveWOMEN_W.osexp"	"C:\Users\Laptop3\Desktop\Wednesday 2102"	"no"	"mono"	"no"	"24"	"no"	"black"	"no"	"Continue"	"yes"	"768"	"No"	"No"	"no"	"No"	"legacy"	"5"	"0"	"5"	"0"	"C:/Users/Laptop3/Desktop/Wednesday 2102/subject-62.csv"	"6"	"xpyriment"	"Jazzy James"	"3.1.4"	"0"	"1"	"1"	"9604"	"9604"	"2"	"legacy"	"1024"	"2"	"48000"	"-16"	"experiment"	"62"	"even"	"legacy"	"148760"	NA	"140483"	"148760"	NA	"155801"	NA	NA	"1615"	"137754"	"1615"	NA	NA	"1620"	"1620"	"57462"	"57461"	"57442"	"128149"	"155801"	"140519"	NA	"150782"	NA	NA	"128148"	"lineup1"	"0"	"0"	"0"	"no"	"no"	"1366"
"16"	""	"undefined"	"undefined"	"undefined"	"undefined"	"white"	"no"	"xpyriment"	"legacy"	"legacy"	"0"	"no"	"relative"	"undefined"	"undefined"	"0"	"5"	"5"	"0"	"0"	"0"	"5"	"0"	"0"	"5"	"0"	"0"	"0"	"0"	"0"	"0"	"0"	"0"	"5"	"7"	"0"	"0"	"0"	"0"	"0"	"5"	"715"	"767"	"02/21/18 14:39:15"	"Executes Python code"	"yes"	""	"lineup_liveWOMEN_W.osexp"	"C:\Users\Laptop3\Desktop\Wednesday 2102"	"no"	"mono"	"no"	"24"	"no"	"black"	"no"	"Click to end"	"yes"	"768"	"No"	"No"	"no"	"No"	"legacy"	"5"	"0"	"5"	"0"	"C:/Users/Laptop3/Desktop/Wednesday 2102/subject-62.csv"	"6"	"xpyriment"	"Jazzy James"	"3.1.4"	"0"	"1"	"1"	"9604"	"9604"	"2"	"legacy"	"1024"	"2"	"48000"	"-16"	"experiment"	"62"	"even"	"legacy"	"148760"	NA	"140483"	"148760"	NA	"155801"	NA	"155837"	"1615"	"137754"	"1615"	NA	NA	"1620"	"1620"	"57462"	"57461"	"57442"	"128149"	"158296"	"140519"	NA	"150782"	NA	NA	"128148"	"lineup1"	"0"	"0"	"0"	"no"	"no"	"1366"
"17"	""	"undefined"	"undefined"	"undefined"	"undefined"	"white"	"no"	"xpyriment"	"legacy"	"legacy"	"0"	"no"	"relative"	"undefined"	"undefined"	"0"	"0"	"0"	"0"	"0"	"0"	"0"	"0"	"0"	"0"	"0"	"0"	"0"	"0"	"0"	"0"	"0"	"0"	"0"	"2"	"0"	"0"	"0"	"0"	"0"	"0"	"1273"	"54"	"02/21/18 14:58:22"	"Executes Python code"	"yes"	""	"lineup_liveWOMEN_W.osexp"	"C:\Users\Laptop3\Desktop\Wednesday 2102"	"no"	"mono"	"no"	"24"	"no"	"black"	"no"	"Continue"	"yes"	"768"	"No"	"no"	"no"	"no"	"legacy"	"0"	"0"	"0"	"0"	"C:/Users/Laptop3/Desktop/Wednesday 2102/subject-63.csv"	"1"	"xpyriment"	"Jazzy James"	"3.1.4"	"0"	"1"	"1"	"17983"	"17983"	"2"	"legacy"	"1024"	"2"	"48000"	"-16"	"experiment"	"63"	"odd"	"legacy"	NA	NA	"57415"	NA	NA	NA	NA	NA	"1592"	"53019"	"1593"	NA	NA	"1597"	"1597"	"34970"	"34970"	"34951"	"35036"	"57415"	NA	NA	NA	NA	NA	"35035"	"lineup1"	"0"	"0"	"0"	"no"	"no"	"1366"
"18"	""	"undefined"	"undefined"	"undefined"	"undefined"	"white"	"no"	"xpyriment"	"legacy"	"legacy"	"0"	"no"	"relative"	"undefined"	"undefined"	"0"	"1"	"1"	"0"	"0"	"0"	"1"	"0"	"0"	"1"	"0"	"0"	"0"	"0"	"0"	"0"	"0"	"0"	"1"	"3"	"0"	"0"	"0"	"0"	"0"	"1"	"128"	"675"	"02/21/18 14:58:22"	"Executes Python code"	"yes"	""	"lineup_liveWOMEN_W.osexp"	"C:\Users\Laptop3\Desktop\Wednesday 2102"	"no"	"mono"	"no"	"24"	"no"	"black"	"no"	"Continue"	"yes"	"768"	"Not sure"	"no"	"no"	"no"	"legacy"	"1"	"0"	"1"	"0"	"C:/Users/Laptop3/Desktop/Wednesday 2102/subject-63.csv"	"2"	"xpyriment"	"Jazzy James"	"3.1.4"	"0"	"1"	"1"	"9968"	"9968"	"2"	"legacy"	"1024"	"2"	"48000"	"-16"	"experiment"	"63"	"odd"	"legacy"	NA	NA	"72911"	NA	NA	NA	NA	NA	"1592"	"67491"	"1593"	NA	NA	"1597"	"1597"	"34970"	"34970"	"34951"	"57523"	"72911"	NA	NA	NA	NA	NA	"57522"	"lineup1"	"0"	"0"	"0"	"no"	"no"	"1366"
"19"	""	"undefined"	"undefined"	"undefined"	"undefined"	"white"	"no"	"xpyriment"	"legacy"	"legacy"	"0"	"no"	"relative"	"undefined"	"undefined"	"0"	"2"	"2"	"0"	"0"	"0"	"2"	"0"	"0"	"2"	"0"	"0"	"0"	"0"	"0"	"0"	"0"	"0"	"2"	"4"	"0"	"0"	"0"	"0"	"0"	"2"	"173"	"624"	"02/21/18 14:58:22"	"Executes Python code"	"yes"	""	"lineup_liveWOMEN_W.osexp"	"C:\Users\Laptop3\Desktop\Wednesday 2102"	"no"	"mono"	"no"	"24"	"no"	"black"	"no"	"Continue"	"yes"	"768"	"No"	"no"	"no"	"no"	"legacy"	"2"	"0"	"2"	"0"	"C:/Users/Laptop3/Desktop/Wednesday 2102/subject-63.csv"	"3"	"xpyriment"	"Jazzy James"	"3.1.4"	"0"	"1"	"1"	"9971"	"9971"	"2"	"legacy"	"1024"	"2"	"48000"	"-16"	"experiment"	"63"	"odd"	"legacy"	NA	NA	"86633"	NA	NA	NA	NA	NA	"1592"	"82987"	"1593"	NA	NA	"1597"	"1597"	"34970"	"34970"	"34951"	"73016"	"86634"	NA	NA	NA	NA	NA	"73015"	"lineup1"	"0"	"0"	"0"	"no"	"no"	"1366"
"20"	""	"undefined"	"undefined"	"undefined"	"undefined"	"white"	"no"	"xpyriment"	"legacy"	"legacy"	"0"	"no"	"relative"	"undefined"	"undefined"	"0"	"3"	"3"	"0"	"0"	"0"	"3"	"0"	"0"	"3"	"0"	"0"	"0"	"0"	"0"	"0"	"0"	"0"	"3"	"5"	"0"	"0"	"0"	"0"	"0"	"3"	"131"	"700"	"02/21/18 14:58:22"	"Executes Python code"	"yes"	""	"lineup_liveWOMEN_W.osexp"	"C:\Users\Laptop3\Desktop\Wednesday 2102"	"no"	"mono"	"no"	"24"	"no"	"black"	"no"	"Continue"	"yes"	"768"	"No"	"no"	"no"	"no"	"legacy"	"3"	"0"	"3"	"0"	"C:/Users/Laptop3/Desktop/Wednesday 2102/subject-63.csv"	"4"	"xpyriment"	"Jazzy James"	"3.1.4"	"0"	"1"	"1"	"7842"	"7842"	"2"	"legacy"	"1024"	"2"	"48000"	"-16"	"experiment"	"63"	"odd"	"legacy"	NA	NA	"98480"	NA	NA	NA	NA	NA	"1592"	"94579"	"1593"	NA	NA	"1597"	"1597"	"34970"	"34970"	"34951"	"86737"	"98480"	NA	NA	NA	NA	NA	"86736"	"lineup1"	"0"	"0"	"0"	"no"	"no"	"1366"
"21"	""	"undefined"	"undefined"	"undefined"	"undefined"	"white"	"no"	"xpyriment"	"legacy"	"legacy"	"0"	"no"	"relative"	"undefined"	"undefined"	"0"	"4"	"4"	"0"	"0"	"0"	"4"	"0"	"0"	"4"	"0"	"0"	"0"	"0"	"0"	"0"	"0"	"0"	"4"	"6"	"0"	"0"	"0"	"0"	"0"	"4"	"64"	"612"	"02/21/18 14:58:22"	"Executes Python code"	"yes"	""	"lineup_liveWOMEN_W.osexp"	"C:\Users\Laptop3\Desktop\Wednesday 2102"	"no"	"mono"	"no"	"24"	"no"	"black"	"no"	"Continue"	"yes"	"768"	"No"	"no"	"no"	"no"	"legacy"	"4"	"0"	"4"	"0"	"C:/Users/Laptop3/Desktop/Wednesday 2102/subject-63.csv"	"5"	"xpyriment"	"Jazzy James"	"3.1.4"	"0"	"1"	"1"	"7952"	"7952"	"2"	"legacy"	"1024"	"2"	"48000"	"-16"	"experiment"	"63"	"odd"	"legacy"	NA	NA	"109308"	NA	NA	NA	NA	NA	"1592"	"106539"	"1593"	NA	NA	"1597"	"1597"	"34970"	"34970"	"34951"	"98586"	"109308"	NA	NA	NA	NA	NA	"98585"	"lineup1"	"0"	"0"	"0"	"no"	"no"	"1366"
"22"	""	"undefined"	"undefined"	"undefined"	"undefined"	"white"	"no"	"xpyriment"	"legacy"	"legacy"	"0"	"no"	"relative"	"undefined"	"undefined"	"0"	"5"	"5"	"0"	"0"	"0"	"5"	"0"	"0"	"5"	"0"	"0"	"0"	"0"	"0"	"0"	"0"	"0"	"5"	"7"	"0"	"0"	"0"	"0"	"0"	"5"	"151"	"630"	"02/21/18 14:58:22"	"Executes Python code"	"yes"	""	"lineup_liveWOMEN_W.osexp"	"C:\Users\Laptop3\Desktop\Wednesday 2102"	"no"	"mono"	"no"	"24"	"no"	"black"	"no"	"Continue"	"yes"	"768"	"No"	"no"	"no"	"no"	"legacy"	"5"	"0"	"5"	"0"	"C:/Users/Laptop3/Desktop/Wednesday 2102/subject-63.csv"	"6"	"xpyriment"	"Jazzy James"	"3.1.4"	"0"	"1"	"1"	"6527"	"6527"	"2"	"legacy"	"1024"	"2"	"48000"	"-16"	"experiment"	"63"	"odd"	"legacy"	NA	NA	"118959"	NA	NA	NA	NA	NA	"1592"	"115939"	"1593"	NA	NA	"1597"	"1597"	"34970"	"34970"	"34951"	"109412"	"118960"	NA	NA	NA	NA	NA	"109411"	"lineup1"	"0"	"0"	"0"	"no"	"no"	"1366"
"23"	""	"undefined"	"undefined"	"undefined"	"undefined"	"white"	"no"	"xpyriment"	"legacy"	"legacy"	"0"	"no"	"relative"	"undefined"	"undefined"	"0"	"5"	"5"	"0"	"0"	"0"	"5"	"0"	"0"	"5"	"0"	"0"	"0"	"0"	"0"	"0"	"0"	"0"	"5"	"7"	"0"	"0"	"0"	"0"	"0"	"5"	"151"	"630"	"02/21/18 14:58:22"	"Executes Python code"	"yes"	""	"lineup_liveWOMEN_W.osexp"	"C:\Users\Laptop3\Desktop\Wednesday 2102"	"no"	"mono"	"no"	"24"	"no"	"black"	"no"	"Continue"	"yes"	"768"	"No"	"Yes"	"One"	"No"	"legacy"	"5"	"0"	"5"	"0"	"C:/Users/Laptop3/Desktop/Wednesday 2102/subject-63.csv"	"6"	"xpyriment"	"Jazzy James"	"3.1.4"	"0"	"1"	"1"	"6527"	"6527"	"2"	"legacy"	"1024"	"2"	"48000"	"-16"	"experiment"	"63"	"odd"	"legacy"	"128823"	NA	"118959"	"124022"	"128822"	"133528"	NA	NA	"1592"	"115939"	"1593"	NA	NA	"1597"	"1597"	"34970"	"34970"	"34951"	"109412"	"133528"	"118997"	"124022"	"130521"	NA	NA	"109411"	"lineup1"	"0"	"0"	"0"	"no"	"no"	"1366"
"24"	""	"undefined"	"undefined"	"undefined"	"undefined"	"white"	"no"	"xpyriment"	"legacy"	"legacy"	"0"	"no"	"relative"	"undefined"	"undefined"	"0"	"5"	"5"	"0"	"0"	"0"	"5"	"0"	"0"	"5"	"0"	"0"	"0"	"0"	"0"	"0"	"0"	"0"	"5"	"7"	"0"	"0"	"0"	"0"	"0"	"5"	"151"	"630"	"02/21/18 14:58:22"	"Executes Python code"	"yes"	""	"lineup_liveWOMEN_W.osexp"	"C:\Users\Laptop3\Desktop\Wednesday 2102"	"no"	"mono"	"no"	"24"	"no"	"black"	"no"	"Click to end"	"yes"	"768"	"No"	"Yes"	"One"	"No"	"legacy"	"5"	"0"	"5"	"0"	"C:/Users/Laptop3/Desktop/Wednesday 2102/subject-63.csv"	"6"	"xpyriment"	"Jazzy James"	"3.1.4"	"0"	"1"	"1"	"6527"	"6527"	"2"	"legacy"	"1024"	"2"	"48000"	"-16"	"experiment"	"63"	"odd"	"legacy"	"128823"	NA	"118959"	"124022"	"128822"	"133528"	NA	"133562"	"1592"	"115939"	"1593"	NA	NA	"1597"	"1597"	"34970"	"34970"	"34951"	"109412"	"134520"	"118997"	"124022"	"130521"	NA	NA	"109411"	"lineup1"	"0"	"0"	"0"	"no"	"no"	"1366"
"25"	""	"undefined"	"undefined"	"undefined"	"undefined"	"white"	"no"	"xpyriment"	"legacy"	"legacy"	"0"	"30"	"relative"	"undefined"	"undefined"	"0"	"0"	"0"	"0"	"0"	"0"	"0"	"0"	"0"	"0"	"0"	"0"	"0"	"0"	"0"	"0"	"0"	"0"	"0"	"2"	"0"	"0"	"0"	"0"	"0"	"0"	"819"	"755"	"02/21/18 15:16:33"	"Executes Python code"	"yes"	""	"lineup_liveWOMEN_W.osexp"	"C:\Users\Laptop3\Desktop\Wednesday 2102"	"no"	"mono"	"no"	"24"	"no"	"black"	"no"	"Continue"	"yes"	"768"	"Yes"	"no"	"no"	"no"	"legacy"	"0"	"0"	"0"	"0"	"C:/Users/Laptop3/Desktop/Wednesday 2102/subject-64.csv"	"1"	"xpyriment"	"Jazzy James"	"3.1.4"	"0"	"1"	"1"	"21969"	"21969"	"2"	"legacy"	"1024"	"2"	"48000"	"-16"	"experiment"	"64"	"even"	"legacy"	NA	"71425"	"66858"	NA	NA	NA	"66858"	NA	"1619"	"49897"	"1620"	NA	NA	"1624"	"1624"	"27860"	"27860"	"27841"	"27927"	"71425"	NA	NA	NA	NA	NA	"27926"	"lineup1"	"0"	"0"	"0"	"no"	"no"	"1366"
"26"	""	"undefined"	"undefined"	"undefined"	"undefined"	"white"	"no"	"xpyriment"	"legacy"	"legacy"	"0"	"no"	"relative"	"undefined"	"undefined"	"0"	"1"	"1"	"0"	"0"	"0"	"1"	"0"	"0"	"1"	"0"	"0"	"0"	"0"	"0"	"0"	"0"	"0"	"1"	"3"	"0"	"0"	"0"	"0"	"0"	"1"	"237"	"542"	"02/21/18 15:16:33"	"Executes Python code"	"yes"	""	"lineup_liveWOMEN_W.osexp"	"C:\Users\Laptop3\Desktop\Wednesday 2102"	"no"	"mono"	"no"	"24"	"no"	"black"	"no"	"Continue"	"yes"	"768"	"No"	"no"	"no"	"no"	"legacy"	"1"	"0"	"1"	"0"	"C:/Users/Laptop3/Desktop/Wednesday 2102/subject-64.csv"	"2"	"xpyriment"	"Jazzy James"	"3.1.4"	"0"	"1"	"1"	"8629"	"8629"	"2"	"legacy"	"1024"	"2"	"48000"	"-16"	"experiment"	"64"	"even"	"legacy"	NA	"71425"	"85937"	NA	NA	NA	"66858"	NA	"1619"	"80160"	"1620"	NA	NA	"1624"	"1624"	"27860"	"27860"	"27841"	"71530"	"85937"	NA	NA	NA	NA	NA	"71529"	"lineup1"	"0"	"0"	"0"	"no"	"no"	"1366"
"27"	""	"undefined"	"undefined"	"undefined"	"undefined"	"white"	"no"	"xpyriment"	"legacy"	"legacy"	"0"	"no"	"relative"	"undefined"	"undefined"	"0"	"2"	"2"	"0"	"0"	"0"	"2"	"0"	"0"	"2"	"0"	"0"	"0"	"0"	"0"	"0"	"0"	"0"	"2"	"4"	"0"	"0"	"0"	"0"	"0"	"2"	"78"	"641"	"02/21/18 15:16:33"	"Executes Python code"	"yes"	""	"lineup_liveWOMEN_W.osexp"	"C:\Users\Laptop3\Desktop\Wednesday 2102"	"no"	"mono"	"no"	"24"	"no"	"black"	"no"	"Continue"	"yes"	"768"	"No"	"no"	"no"	"no"	"legacy"	"2"	"0"	"2"	"0"	"C:/Users/Laptop3/Desktop/Wednesday 2102/subject-64.csv"	"3"	"xpyriment"	"Jazzy James"	"3.1.4"	"0"	"1"	"1"	"7104"	"7104"	"2"	"legacy"	"1024"	"2"	"48000"	"-16"	"experiment"	"64"	"even"	"legacy"	NA	"71425"	"97039"	NA	NA	NA	"66858"	NA	"1619"	"93152"	"1620"	NA	NA	"1624"	"1624"	"27860"	"27860"	"27841"	"86047"	"97040"	NA	NA	NA	NA	NA	"86046"	"lineup1"	"0"	"0"	"0"	"no"	"no"	"1366"
"28"	""	"undefined"	"undefined"	"undefined"	"undefined"	"white"	"no"	"xpyriment"	"legacy"	"legacy"	"0"	"no"	"relative"	"undefined"	"undefined"	"0"	"3"	"3"	"0"	"0"	"0"	"3"	"0"	"0"	"3"	"0"	"0"	"0"	"0"	"0"	"0"	"0"	"0"	"3"	"5"	"0"	"0"	"0"	"0"	"0"	"3"	"98"	"612"	"02/21/18 15:16:33"	"Executes Python code"	"yes"	""	"lineup_liveWOMEN_W.osexp"	"C:\Users\Laptop3\Desktop\Wednesday 2102"	"no"	"mono"	"no"	"24"	"no"	"black"	"no"	"Continue"	"yes"	"768"	"No"	"no"	"no"	"no"	"legacy"	"3"	"0"	"3"	"0"	"C:/Users/Laptop3/Desktop/Wednesday 2102/subject-64.csv"	"4"	"xpyriment"	"Jazzy James"	"3.1.4"	"0"	"1"	"1"	"8750"	"8750"	"2"	"legacy"	"1024"	"2"	"48000"	"-16"	"experiment"	"64"	"even"	"legacy"	NA	"71425"	"109651"	NA	NA	NA	"66858"	NA	"1619"	"105896"	"1620"	NA	NA	"1624"	"1624"	"27860"	"27860"	"27841"	"97145"	"109651"	NA	NA	NA	NA	NA	"97144"	"lineup1"	"0"	"0"	"0"	"no"	"no"	"1366"
"29"	""	"undefined"	"undefined"	"undefined"	"undefined"	"white"	"no"	"xpyriment"	"legacy"	"legacy"	"0"	"no"	"relative"	"undefined"	"undefined"	"0"	"4"	"4"	"0"	"0"	"0"	"4"	"0"	"0"	"4"	"0"	"0"	"0"	"0"	"0"	"0"	"0"	"0"	"4"	"6"	"0"	"0"	"0"	"0"	"0"	"4"	"128"	"514"	"02/21/18 15:16:33"	"Executes Python code"	"yes"	""	"lineup_liveWOMEN_W.osexp"	"C:\Users\Laptop3\Desktop\Wednesday 2102"	"no"	"mono"	"no"	"24"	"no"	"black"	"no"	"Continue"	"yes"	"768"	"No"	"no"	"no"	"no"	"legacy"	"4"	"0"	"4"	"0"	"C:/Users/Laptop3/Desktop/Wednesday 2102/subject-64.csv"	"5"	"xpyriment"	"Jazzy James"	"3.1.4"	"0"	"1"	"1"	"8554"	"8554"	"2"	"legacy"	"1024"	"2"	"48000"	"-16"	"experiment"	"64"	"even"	"legacy"	NA	"71425"	"123463"	NA	NA	NA	"66858"	NA	"1619"	"118312"	"1620"	NA	NA	"1624"	"1624"	"27860"	"27860"	"27841"	"109758"	"123463"	NA	NA	NA	NA	NA	"109756"	"lineup1"	"0"	"0"	"0"	"no"	"no"	"1366"
"30"	""	"undefined"	"undefined"	"undefined"	"undefined"	"white"	"no"	"xpyriment"	"legacy"	"legacy"	"0"	"no"	"relative"	"undefined"	"undefined"	"0"	"5"	"5"	"0"	"0"	"0"	"5"	"0"	"0"	"5"	"0"	"0"	"0"	"0"	"0"	"0"	"0"	"0"	"5"	"7"	"0"	"0"	"0"	"0"	"0"	"5"	"160"	"612"	"02/21/18 15:16:33"	"Executes Python code"	"yes"	""	"lineup_liveWOMEN_W.osexp"	"C:\Users\Laptop3\Desktop\Wednesday 2102"	"no"	"mono"	"no"	"24"	"no"	"black"	"no"	"Continue"	"yes"	"768"	"No"	"no"	"no"	"no"	"legacy"	"5"	"0"	"5"	"0"	"C:/Users/Laptop3/Desktop/Wednesday 2102/subject-64.csv"	"6"	"xpyriment"	"Jazzy James"	"3.1.4"	"0"	"1"	"1"	"7924"	"7924"	"2"	"legacy"	"1024"	"2"	"48000"	"-16"	"experiment"	"64"	"even"	"legacy"	NA	"71425"	"135902"	NA	NA	NA	"66858"	NA	"1619"	"131495"	"1620"	NA	NA	"1624"	"1624"	"27860"	"27860"	"27841"	"123571"	"135902"	NA	NA	NA	NA	NA	"123570"	"lineup1"	"0"	"0"	"0"	"no"	"no"	"1366"
"31"	""	"undefined"	"undefined"	"undefined"	"undefined"	"white"	"no"	"xpyriment"	"legacy"	"legacy"	"0"	"no"	"relative"	"undefined"	"undefined"	"0"	"5"	"5"	"0"	"0"	"0"	"5"	"0"	"0"	"5"	"0"	"0"	"0"	"0"	"0"	"0"	"0"	"0"	"5"	"7"	"0"	"0"	"0"	"0"	"0"	"5"	"160"	"612"	"02/21/18 15:16:33"	"Executes Python code"	"yes"	""	"lineup_liveWOMEN_W.osexp"	"C:\Users\Laptop3\Desktop\Wednesday 2102"	"no"	"mono"	"no"	"24"	"no"	"black"	"no"	"Continue"	"yes"	"768"	"No"	"Yes"	"One"	"No"	"legacy"	"5"	"0"	"5"	"0"	"C:/Users/Laptop3/Desktop/Wednesday 2102/subject-64.csv"	"6"	"xpyriment"	"Jazzy James"	"3.1.4"	"0"	"1"	"1"	"7924"	"7924"	"2"	"legacy"	"1024"	"2"	"48000"	"-16"	"experiment"	"64"	"even"	"legacy"	"146607"	"71425"	"135902"	"143130"	"146607"	"150764"	"66858"	NA	"1619"	"131495"	"1620"	NA	NA	"1624"	"1624"	"27860"	"27860"	"27841"	"123571"	"150764"	"135941"	"143130"	"147691"	NA	NA	"123570"	"lineup1"	"0"	"0"	"0"	"no"	"no"	"1366"
"32"	""	"undefined"	"undefined"	"undefined"	"undefined"	"white"	"no"	"xpyriment"	"legacy"	"legacy"	"0"	"no"	"relative"	"undefined"	"undefined"	"0"	"5"	"5"	"0"	"0"	"0"	"5"	"0"	"0"	"5"	"0"	"0"	"0"	"0"	"0"	"0"	"0"	"0"	"5"	"7"	"0"	"0"	"0"	"0"	"0"	"5"	"160"	"612"	"02/21/18 15:16:33"	"Executes Python code"	"yes"	""	"lineup_liveWOMEN_W.osexp"	"C:\Users\Laptop3\Desktop\Wednesday 2102"	"no"	"mono"	"no"	"24"	"no"	"black"	"no"	"Click to end"	"yes"	"768"	"No"	"Yes"	"One"	"No"	"legacy"	"5"	"0"	"5"	"0"	"C:/Users/Laptop3/Desktop/Wednesday 2102/subject-64.csv"	"6"	"xpyriment"	"Jazzy James"	"3.1.4"	"0"	"1"	"1"	"7924"	"7924"	"2"	"legacy"	"1024"	"2"	"48000"	"-16"	"experiment"	"64"	"even"	"legacy"	"146607"	"71425"	"135902"	"143130"	"146607"	"150764"	"66858"	"150795"	"1619"	"131495"	"1620"	NA	NA	"1624"	"1624"	"27860"	"27860"	"27841"	"123571"	"151453"	"135941"	"143130"	"147691"	NA	NA	"123570"	"lineup1"	"0"	"0"	"0"	"no"	"no"	"1366"
"33"	""	"undefined"	"undefined"	"undefined"	"undefined"	"white"	"no"	"xpyriment"	"legacy"	"legacy"	"0"	"no"	"relative"	"undefined"	"undefined"	"0"	"0"	"0"	"0"	"0"	"0"	"0"	"0"	"0"	"0"	"0"	"0"	"0"	"0"	"0"	"0"	"0"	"0"	"0"	"2"	"0"	"0"	"0"	"0"	"0"	"0"	"812"	"501"	"02/21/18 14:44:39"	"Executes Python code"	"yes"	""	"lineup_liveWOMEN_W.osexp"	"C:\Users\Laptop3\Desktop\Wednesday 2102"	"no"	"mono"	"no"	"24"	"no"	"black"	"no"	"Continue"	"yes"	"768"	"No"	"no"	"no"	"no"	"legacy"	"0"	"0"	"0"	"0"	"C:/Users/Laptop3/Desktop/Wednesday 2102/subject-65.csv"	"1"	"xpyriment"	"Jazzy James"	"3.1.4"	"0"	"1"	"1"	"16109"	"16109"	"2"	"legacy"	"1024"	"2"	"48000"	"-16"	"experiment"	"65"	"odd"	"legacy"	NA	NA	"45628"	NA	NA	NA	NA	NA	"1562"	"41983"	"1562"	NA	NA	"1567"	"1567"	"25806"	"25806"	"25787"	"25874"	"45628"	NA	NA	NA	NA	NA	"25873"	"lineup1"	"0"	"0"	"0"	"no"	"no"	"1366"
"34"	""	"undefined"	"undefined"	"undefined"	"undefined"	"white"	"no"	"xpyriment"	"legacy"	"legacy"	"0"	"no"	"relative"	"undefined"	"undefined"	"0"	"1"	"1"	"0"	"0"	"0"	"1"	"0"	"0"	"1"	"0"	"0"	"0"	"0"	"0"	"0"	"0"	"0"	"1"	"3"	"0"	"0"	"0"	"0"	"0"	"1"	"137"	"674"	"02/21/18 14:44:39"	"Executes Python code"	"yes"	""	"lineup_liveWOMEN_W.osexp"	"C:\Users\Laptop3\Desktop\Wednesday 2102"	"no"	"mono"	"no"	"24"	"no"	"black"	"no"	"Continue"	"yes"	"768"	"No"	"no"	"no"	"no"	"legacy"	"1"	"0"	"1"	"0"	"C:/Users/Laptop3/Desktop/Wednesday 2102/subject-65.csv"	"2"	"xpyriment"	"Jazzy James"	"3.1.4"	"0"	"1"	"1"	"6835"	"6835"	"2"	"legacy"	"1024"	"2"	"48000"	"-16"	"experiment"	"65"	"odd"	"legacy"	NA	NA	"55603"	NA	NA	NA	NA	NA	"1562"	"52846"	"1562"	NA	NA	"1567"	"1567"	"25806"	"25806"	"25787"	"46011"	"55603"	NA	NA	NA	NA	NA	"46010"	"lineup1"	"0"	"0"	"0"	"no"	"no"	"1366"
"35"	""	"undefined"	"undefined"	"undefined"	"undefined"	"white"	"no"	"xpyriment"	"legacy"	"legacy"	"0"	"no"	"relative"	"undefined"	"undefined"	"0"	"2"	"2"	"0"	"0"	"0"	"2"	"0"	"0"	"2"	"0"	"0"	"0"	"0"	"0"	"0"	"0"	"0"	"2"	"4"	"0"	"0"	"0"	"0"	"0"	"2"	"587"	"693"	"02/21/18 14:44:39"	"Executes Python code"	"yes"	""	"lineup_liveWOMEN_W.osexp"	"C:\Users\Laptop3\Desktop\Wednesday 2102"	"no"	"mono"	"no"	"24"	"no"	"black"	"no"	"Continue"	"yes"	"768"	"No"	"no"	"no"	"no"	"legacy"	"2"	"0"	"2"	"0"	"C:/Users/Laptop3/Desktop/Wednesday 2102/subject-65.csv"	"3"	"xpyriment"	"Jazzy James"	"3.1.4"	"0"	"1"	"1"	"7321"	"7321"	"2"	"legacy"	"1024"	"2"	"48000"	"-16"	"experiment"	"65"	"odd"	"legacy"	NA	NA	"65670"	NA	NA	NA	NA	NA	"1562"	"63031"	"1562"	NA	NA	"1567"	"1567"	"25806"	"25806"	"25787"	"55709"	"65671"	NA	NA	NA	NA	NA	"55707"	"lineup1"	"0"	"0"	"0"	"no"	"no"	"1366"
"36"	""	"undefined"	"undefined"	"undefined"	"undefined"	"white"	"no"	"xpyriment"	"legacy"	"legacy"	"0"	"no"	"relative"	"undefined"	"undefined"	"0"	"3"	"3"	"0"	"0"	"0"	"3"	"0"	"0"	"3"	"0"	"0"	"0"	"0"	"0"	"0"	"0"	"0"	"3"	"5"	"0"	"0"	"0"	"0"	"0"	"3"	"502"	"708"	"02/21/18 14:44:39"	"Executes Python code"	"yes"	""	"lineup_liveWOMEN_W.osexp"	"C:\Users\Laptop3\Desktop\Wednesday 2102"	"no"	"mono"	"no"	"24"	"no"	"black"	"no"	"Continue"	"yes"	"768"	"No"	"no"	"no"	"no"	"legacy"	"3"	"0"	"3"	"0"	"C:/Users/Laptop3/Desktop/Wednesday 2102/subject-65.csv"	"4"	"xpyriment"	"Jazzy James"	"3.1.4"	"0"	"1"	"1"	"8879"	"8879"	"2"	"legacy"	"1024"	"2"	"48000"	"-16"	"experiment"	"65"	"odd"	"legacy"	NA	NA	"76915"	NA	NA	NA	NA	NA	"1562"	"74655"	"1562"	NA	NA	"1567"	"1567"	"25806"	"25806"	"25787"	"65776"	"76915"	NA	NA	NA	NA	NA	"65774"	"lineup1"	"0"	"0"	"0"	"no"	"no"	"1366"
"37"	""	"undefined"	"undefined"	"undefined"	"undefined"	"white"	"no"	"xpyriment"	"legacy"	"legacy"	"0"	"no"	"relative"	"undefined"	"undefined"	"0"	"4"	"4"	"0"	"0"	"0"	"4"	"0"	"0"	"4"	"0"	"0"	"0"	"0"	"0"	"0"	"0"	"0"	"4"	"6"	"0"	"0"	"0"	"0"	"0"	"4"	"548"	"712"	"02/21/18 14:44:39"	"Executes Python code"	"yes"	""	"lineup_liveWOMEN_W.osexp"	"C:\Users\Laptop3\Desktop\Wednesday 2102"	"no"	"mono"	"no"	"24"	"no"	"black"	"no"	"Continue"	"yes"	"768"	"No"	"no"	"no"	"no"	"legacy"	"4"	"0"	"4"	"0"	"C:/Users/Laptop3/Desktop/Wednesday 2102/subject-65.csv"	"5"	"xpyriment"	"Jazzy James"	"3.1.4"	"0"	"1"	"1"	"7274"	"7274"	"2"	"legacy"	"1024"	"2"	"48000"	"-16"	"experiment"	"65"	"odd"	"legacy"	NA	NA	"86303"	NA	NA	NA	NA	NA	"1562"	"84294"	"1562"	NA	NA	"1567"	"1567"	"25806"	"25806"	"25787"	"77020"	"86303"	NA	NA	NA	NA	NA	"77019"	"lineup1"	"0"	"0"	"0"	"no"	"no"	"1366"
"38"	""	"undefined"	"undefined"	"undefined"	"undefined"	"white"	"no"	"xpyriment"	"legacy"	"legacy"	"0"	"no"	"relative"	"undefined"	"undefined"	"0"	"5"	"5"	"0"	"0"	"0"	"5"	"0"	"0"	"5"	"0"	"0"	"0"	"0"	"0"	"0"	"0"	"0"	"5"	"7"	"0"	"0"	"0"	"0"	"0"	"5"	"689"	"642"	"02/21/18 14:44:39"	"Executes Python code"	"yes"	""	"lineup_liveWOMEN_W.osexp"	"C:\Users\Laptop3\Desktop\Wednesday 2102"	"no"	"mono"	"no"	"24"	"no"	"black"	"no"	"Continue"	"yes"	"768"	"No"	"no"	"no"	"no"	"legacy"	"5"	"0"	"5"	"0"	"C:/Users/Laptop3/Desktop/Wednesday 2102/subject-65.csv"	"6"	"xpyriment"	"Jazzy James"	"3.1.4"	"0"	"1"	"1"	"7479"	"7479"	"2"	"legacy"	"1024"	"2"	"48000"	"-16"	"experiment"	"65"	"odd"	"legacy"	NA	NA	"96025"	NA	NA	NA	NA	NA	"1562"	"93887"	"1562"	NA	NA	"1567"	"1567"	"25806"	"25806"	"25787"	"86407"	"96025"	NA	NA	NA	NA	NA	"86406"	"lineup1"	"0"	"0"	"0"	"no"	"no"	"1366"
"39"	""	"undefined"	"undefined"	"undefined"	"undefined"	"white"	"no"	"xpyriment"	"legacy"	"legacy"	"0"	"no"	"relative"	"undefined"	"undefined"	"0"	"5"	"5"	"0"	"0"	"0"	"5"	"0"	"0"	"5"	"0"	"0"	"0"	"0"	"0"	"0"	"0"	"0"	"5"	"7"	"0"	"0"	"0"	"0"	"0"	"5"	"689"	"642"	"02/21/18 14:44:39"	"Executes Python code"	"yes"	""	"lineup_liveWOMEN_W.osexp"	"C:\Users\Laptop3\Desktop\Wednesday 2102"	"no"	"mono"	"no"	"24"	"no"	"black"	"no"	"Continue"	"yes"	"768"	"No"	"No"	"no"	"No"	"legacy"	"5"	"0"	"5"	"0"	"C:/Users/Laptop3/Desktop/Wednesday 2102/subject-65.csv"	"6"	"xpyriment"	"Jazzy James"	"3.1.4"	"0"	"1"	"1"	"7479"	"7479"	"2"	"legacy"	"1024"	"2"	"48000"	"-16"	"experiment"	"65"	"odd"	"legacy"	"101728"	NA	"96025"	"101728"	NA	"107729"	NA	NA	"1562"	"93887"	"1562"	NA	NA	"1567"	"1567"	"25806"	"25806"	"25787"	"86407"	"107729"	"96062"	NA	"104401"	NA	NA	"86406"	"lineup1"	"0"	"0"	"0"	"no"	"no"	"1366"
"40"	""	"undefined"	"undefined"	"undefined"	"undefined"	"white"	"no"	"xpyriment"	"legacy"	"legacy"	"0"	"no"	"relative"	"undefined"	"undefined"	"0"	"5"	"5"	"0"	"0"	"0"	"5"	"0"	"0"	"5"	"0"	"0"	"0"	"0"	"0"	"0"	"0"	"0"	"5"	"7"	"0"	"0"	"0"	"0"	"0"	"5"	"689"	"642"	"02/21/18 14:44:39"	"Executes Python code"	"yes"	""	"lineup_liveWOMEN_W.osexp"	"C:\Users\Laptop3\Desktop\Wednesday 2102"	"no"	"mono"	"no"	"24"	"no"	"black"	"no"	"Click to end"	"yes"	"768"	"No"	"No"	"no"	"No"	"legacy"	"5"	"0"	"5"	"0"	"C:/Users/Laptop3/Desktop/Wednesday 2102/subject-65.csv"	"6"	"xpyriment"	"Jazzy James"	"3.1.4"	"0"	"1"	"1"	"7479"	"7479"	"2"	"legacy"	"1024"	"2"	"48000"	"-16"	"experiment"	"65"	"odd"	"legacy"	"101728"	NA	"96025"	"101728"	NA	"107729"	NA	"107761"	"1562"	"93887"	"1562"	NA	NA	"1567"	"1567"	"25806"	"25806"	"25787"	"86407"	"143023"	"96062"	NA	"104401"	NA	NA	"86406"	"lineup1"	"0"	"0"	"0"	"no"	"no"	"1366"
"41"	""	"undefined"	"undefined"	"undefined"	"undefined"	"white"	"no"	"xpyriment"	"legacy"	"legacy"	"0"	"no"	"relative"	"undefined"	"undefined"	"0"	"0"	"0"	"0"	"0"	"0"	"0"	"0"	"0"	"0"	"0"	"0"	"0"	"0"	"0"	"0"	"0"	"0"	"0"	"2"	"0"	"0"	"0"	"0"	"0"	"0"	"955"	"704"	"02/21/18 14:51:24"	"Executes Python code"	"yes"	""	"lineup_liveWOMEN_W.osexp"	"C:\Users\Laptop3\Desktop\Wednesday 2102"	"no"	"mono"	"no"	"24"	"no"	"black"	"no"	"Continue"	"yes"	"768"	"No"	"no"	"no"	"no"	"legacy"	"0"	"0"	"0"	"0"	"C:/Users/Laptop3/Desktop/Wednesday 2102/subject-66.csv"	"1"	"xpyriment"	"Jazzy James"	"3.1.4"	"0"	"1"	"1"	"21383"	"21383"	"2"	"legacy"	"1024"	"2"	"48000"	"-16"	"experiment"	"66"	"even"	"legacy"	NA	NA	"53697"	NA	NA	NA	NA	NA	"1571"	"49927"	"1571"	NA	NA	"1575"	"1575"	"28476"	"28476"	"28457"	"28544"	"53697"	NA	NA	NA	NA	NA	"28543"	"lineup1"	"0"	"0"	"0"	"no"	"no"	"1366"
"42"	""	"undefined"	"undefined"	"undefined"	"undefined"	"white"	"no"	"xpyriment"	"legacy"	"legacy"	"0"	"no"	"relative"	"undefined"	"undefined"	"0"	"1"	"1"	"0"	"0"	"0"	"1"	"0"	"0"	"1"	"0"	"0"	"0"	"0"	"0"	"0"	"0"	"0"	"1"	"3"	"0"	"0"	"0"	"0"	"0"	"1"	"3"	"758"	"02/21/18 14:51:24"	"Executes Python code"	"yes"	""	"lineup_liveWOMEN_W.osexp"	"C:\Users\Laptop3\Desktop\Wednesday 2102"	"no"	"mono"	"no"	"24"	"no"	"black"	"no"	"Continue"	"yes"	"768"	"No"	"no"	"no"	"no"	"legacy"	"1"	"0"	"1"	"0"	"C:/Users/Laptop3/Desktop/Wednesday 2102/subject-66.csv"	"2"	"xpyriment"	"Jazzy James"	"3.1.4"	"0"	"1"	"1"	"7570"	"7570"	"2"	"legacy"	"1024"	"2"	"48000"	"-16"	"experiment"	"66"	"even"	"legacy"	NA	NA	"64752"	NA	NA	NA	NA	NA	"1571"	"61375"	"1571"	NA	NA	"1575"	"1575"	"28476"	"28476"	"28457"	"53805"	"64752"	NA	NA	NA	NA	NA	"53803"	"lineup1"	"0"	"0"	"0"	"no"	"no"	"1366"
"43"	""	"undefined"	"undefined"	"undefined"	"undefined"	"white"	"no"	"xpyriment"	"legacy"	"legacy"	"0"	"no"	"relative"	"undefined"	"undefined"	"0"	"2"	"2"	"0"	"0"	"0"	"2"	"0"	"0"	"2"	"0"	"0"	"0"	"0"	"0"	"0"	"0"	"0"	"2"	"4"	"0"	"0"	"0"	"0"	"0"	"2"	"219"	"761"	"02/21/18 14:51:24"	"Executes Python code"	"yes"	""	"lineup_liveWOMEN_W.osexp"	"C:\Users\Laptop3\Desktop\Wednesday 2102"	"no"	"mono"	"no"	"24"	"no"	"black"	"no"	"Continue"	"yes"	"768"	"No"	"no"	"no"	"no"	"legacy"	"2"	"0"	"2"	"0"	"C:/Users/Laptop3/Desktop/Wednesday 2102/subject-66.csv"	"3"	"xpyriment"	"Jazzy James"	"3.1.4"	"0"	"1"	"1"	"6229"	"6229"	"2"	"legacy"	"1024"	"2"	"48000"	"-16"	"experiment"	"66"	"even"	"legacy"	NA	NA	"74215"	NA	NA	NA	NA	NA	"1571"	"71087"	"1571"	NA	NA	"1575"	"1575"	"28476"	"28476"	"28457"	"64857"	"74215"	NA	NA	NA	NA	NA	"64856"	"lineup1"	"0"	"0"	"0"	"no"	"no"	"1366"
"44"	""	"undefined"	"undefined"	"undefined"	"undefined"	"white"	"no"	"xpyriment"	"legacy"	"legacy"	"0"	"no"	"relative"	"undefined"	"undefined"	"0"	"3"	"3"	"0"	"0"	"0"	"3"	"0"	"0"	"3"	"0"	"0"	"0"	"0"	"0"	"0"	"0"	"0"	"3"	"5"	"0"	"0"	"0"	"0"	"0"	"3"	"483"	"767"	"02/21/18 14:51:24"	"Executes Python code"	"yes"	""	"lineup_liveWOMEN_W.osexp"	"C:\Users\Laptop3\Desktop\Wednesday 2102"	"no"	"mono"	"no"	"24"	"no"	"black"	"no"	"Continue"	"yes"	"768"	"No"	"no"	"no"	"no"	"legacy"	"3"	"0"	"3"	"0"	"C:/Users/Laptop3/Desktop/Wednesday 2102/subject-66.csv"	"4"	"xpyriment"	"Jazzy James"	"3.1.4"	"0"	"1"	"1"	"6694"	"6694"	"2"	"legacy"	"1024"	"2"	"48000"	"-16"	"experiment"	"66"	"even"	"legacy"	NA	NA	"83386"	NA	NA	NA	NA	NA	"1571"	"81015"	"1571"	NA	NA	"1575"	"1575"	"28476"	"28476"	"28457"	"74321"	"83386"	NA	NA	NA	NA	NA	"74320"	"lineup1"	"0"	"0"	"0"	"no"	"no"	"1366"
"45"	""	"undefined"	"undefined"	"undefined"	"undefined"	"white"	"no"	"xpyriment"	"legacy"	"legacy"	"0"	"no"	"relative"	"undefined"	"undefined"	"0"	"4"	"4"	"0"	"0"	"0"	"4"	"0"	"0"	"4"	"0"	"0"	"0"	"0"	"0"	"0"	"0"	"0"	"4"	"6"	"0"	"0"	"0"	"0"	"0"	"4"	"469"	"767"	"02/21/18 14:51:24"	"Executes Python code"	"yes"	""	"lineup_liveWOMEN_W.osexp"	"C:\Users\Laptop3\Desktop\Wednesday 2102"	"no"	"mono"	"no"	"24"	"no"	"black"	"no"	"Continue"	"yes"	"768"	"No"	"no"	"no"	"no"	"legacy"	"4"	"0"	"4"	"0"	"C:/Users/Laptop3/Desktop/Wednesday 2102/subject-66.csv"	"5"	"xpyriment"	"Jazzy James"	"3.1.4"	"0"	"1"	"1"	"13579"	"13579"	"2"	"legacy"	"1024"	"2"	"48000"	"-16"	"experiment"	"66"	"even"	"legacy"	NA	NA	"100211"	NA	NA	NA	NA	NA	"1571"	"97071"	"1571"	NA	NA	"1575"	"1575"	"28476"	"28476"	"28457"	"83492"	"100211"	NA	NA	NA	NA	NA	"83491"	"lineup1"	"0"	"0"	"0"	"no"	"no"	"1366"
"46"	""	"undefined"	"undefined"	"undefined"	"undefined"	"white"	"no"	"xpyriment"	"legacy"	"legacy"	"0"	"no"	"relative"	"undefined"	"undefined"	"0"	"5"	"5"	"0"	"0"	"0"	"5"	"0"	"0"	"5"	"0"	"0"	"0"	"0"	"0"	"0"	"0"	"0"	"5"	"7"	"0"	"0"	"0"	"0"	"0"	"5"	"186"	"722"	"02/21/18 14:51:24"	"Executes Python code"	"yes"	""	"lineup_liveWOMEN_W.osexp"	"C:\Users\Laptop3\Desktop\Wednesday 2102"	"no"	"mono"	"no"	"24"	"no"	"black"	"no"	"Continue"	"yes"	"768"	"No"	"no"	"no"	"no"	"legacy"	"5"	"0"	"5"	"0"	"C:/Users/Laptop3/Desktop/Wednesday 2102/subject-66.csv"	"6"	"xpyriment"	"Jazzy James"	"3.1.4"	"0"	"1"	"1"	"8923"	"8923"	"2"	"legacy"	"1024"	"2"	"48000"	"-16"	"experiment"	"66"	"even"	"legacy"	NA	NA	"111750"	NA	NA	NA	NA	NA	"1571"	"109238"	"1571"	NA	NA	"1575"	"1575"	"28476"	"28476"	"28457"	"100315"	"111750"	NA	NA	NA	NA	NA	"100314"	"lineup1"	"0"	"0"	"0"	"no"	"no"	"1366"
"47"	""	"undefined"	"undefined"	"undefined"	"undefined"	"white"	"no"	"xpyriment"	"legacy"	"legacy"	"0"	"no"	"relative"	"undefined"	"undefined"	"0"	"5"	"5"	"0"	"0"	"0"	"5"	"0"	"0"	"5"	"0"	"0"	"0"	"0"	"0"	"0"	"0"	"0"	"5"	"7"	"0"	"0"	"0"	"0"	"0"	"5"	"186"	"722"	"02/21/18 14:51:24"	"Executes Python code"	"yes"	""	"lineup_liveWOMEN_W.osexp"	"C:\Users\Laptop3\Desktop\Wednesday 2102"	"no"	"mono"	"no"	"24"	"no"	"black"	"no"	"Continue"	"yes"	"768"	"No"	"No"	"no"	"No"	"legacy"	"5"	"0"	"5"	"0"	"C:/Users/Laptop3/Desktop/Wednesday 2102/subject-66.csv"	"6"	"xpyriment"	"Jazzy James"	"3.1.4"	"0"	"1"	"1"	"8923"	"8923"	"2"	"legacy"	"1024"	"2"	"48000"	"-16"	"experiment"	"66"	"even"	"legacy"	"121764"	NA	"111750"	"121763"	NA	"126463"	NA	NA	"1571"	"109238"	"1571"	NA	NA	"1575"	"1575"	"28476"	"28476"	"28457"	"100315"	"126463"	"111787"	NA	"122973"	NA	NA	"100314"	"lineup1"	"0"	"0"	"0"	"no"	"no"	"1366"
"48"	""	"undefined"	"undefined"	"undefined"	"undefined"	"white"	"no"	"xpyriment"	"legacy"	"legacy"	"0"	"no"	"relative"	"undefined"	"undefined"	"0"	"5"	"5"	"0"	"0"	"0"	"5"	"0"	"0"	"5"	"0"	"0"	"0"	"0"	"0"	"0"	"0"	"0"	"5"	"7"	"0"	"0"	"0"	"0"	"0"	"5"	"186"	"722"	"02/21/18 14:51:24"	"Executes Python code"	"yes"	""	"lineup_liveWOMEN_W.osexp"	"C:\Users\Laptop3\Desktop\Wednesday 2102"	"no"	"mono"	"no"	"24"	"no"	"black"	"no"	"Click to end"	"yes"	"768"	"No"	"No"	"no"	"No"	"legacy"	"5"	"0"	"5"	"0"	"C:/Users/Laptop3/Desktop/Wednesday 2102/subject-66.csv"	"6"	"xpyriment"	"Jazzy James"	"3.1.4"	"0"	"1"	"1"	"8923"	"8923"	"2"	"legacy"	"1024"	"2"	"48000"	"-16"	"experiment"	"66"	"even"	"legacy"	"121764"	NA	"111750"	"121763"	NA	"126463"	NA	"126497"	"1571"	"109238"	"1571"	NA	NA	"1575"	"1575"	"28476"	"28476"	"28457"	"100315"	"127355"	"111787"	NA	"122973"	NA	NA	"100314"	"lineup1"	"0"	"0"	"0"	"no"	"no"	"1366"
"49"	""	"undefined"	"undefined"	"undefined"	"undefined"	"white"	"no"	"xpyriment"	"legacy"	"legacy"	"0"	"no"	"relative"	"undefined"	"undefined"	"0"	"0"	"0"	"0"	"0"	"0"	"0"	"0"	"0"	"0"	"0"	"0"	"0"	"0"	"0"	"0"	"0"	"0"	"0"	"2"	"0"	"0"	"0"	"0"	"0"	"0"	"746"	"700"	"02/21/18 15:33:02"	"Executes Python code"	"yes"	""	"lineup_liveWOMEN_W.osexp"	"C:\Users\Laptop3\Desktop\Wednesday 2102"	"no"	"mono"	"no"	"24"	"no"	"black"	"no"	"Continue"	"yes"	"768"	"No"	"no"	"no"	"no"	"legacy"	"0"	"0"	"0"	"0"	"C:/Users/Laptop3/Desktop/Wednesday 2102/subject-67.csv"	"1"	"xpyriment"	"Jazzy James"	"3.1.4"	"0"	"1"	"1"	"23910"	"23910"	"2"	"legacy"	"1024"	"2"	"48000"	"-16"	"experiment"	"67"	"odd"	"legacy"	NA	NA	"53073"	NA	NA	NA	NA	NA	"1578"	"49160"	"1578"	NA	NA	"1583"	"1583"	"25184"	"25183"	"25163"	"25249"	"53073"	NA	NA	NA	NA	NA	"25248"	"lineup1"	"0"	"0"	"0"	"no"	"no"	"1366"
"50"	""	"undefined"	"undefined"	"undefined"	"undefined"	"white"	"no"	"xpyriment"	"legacy"	"legacy"	"0"	"no"	"relative"	"undefined"	"undefined"	"0"	"1"	"1"	"0"	"0"	"0"	"1"	"0"	"0"	"1"	"0"	"0"	"0"	"0"	"0"	"0"	"0"	"0"	"1"	"3"	"0"	"0"	"0"	"0"	"0"	"1"	"20"	"696"	"02/21/18 15:33:02"	"Executes Python code"	"yes"	""	"lineup_liveWOMEN_W.osexp"	"C:\Users\Laptop3\Desktop\Wednesday 2102"	"no"	"mono"	"no"	"24"	"no"	"black"	"no"	"Continue"	"yes"	"768"	"No"	"no"	"no"	"no"	"legacy"	"1"	"0"	"1"	"0"	"C:/Users/Laptop3/Desktop/Wednesday 2102/subject-67.csv"	"2"	"xpyriment"	"Jazzy James"	"3.1.4"	"0"	"1"	"1"	"12093"	"12093"	"2"	"legacy"	"1024"	"2"	"48000"	"-16"	"experiment"	"67"	"odd"	"legacy"	NA	NA	"68298"	NA	NA	NA	NA	NA	"1578"	"65272"	"1578"	NA	NA	"1583"	"1583"	"25184"	"25183"	"25163"	"53178"	"68298"	NA	NA	NA	NA	NA	"53176"	"lineup1"	"0"	"0"	"0"	"no"	"no"	"1366"
"51"	""	"undefined"	"undefined"	"undefined"	"undefined"	"white"	"no"	"xpyriment"	"legacy"	"legacy"	"0"	"60"	"relative"	"undefined"	"undefined"	"0"	"2"	"2"	"0"	"0"	"0"	"2"	"0"	"0"	"2"	"0"	"0"	"0"	"0"	"0"	"0"	"0"	"0"	"2"	"4"	"0"	"0"	"0"	"0"	"0"	"2"	"32"	"764"	"02/21/18 15:33:02"	"Executes Python code"	"yes"	""	"lineup_liveWOMEN_W.osexp"	"C:\Users\Laptop3\Desktop\Wednesday 2102"	"no"	"mono"	"no"	"24"	"no"	"black"	"no"	"Continue"	"yes"	"768"	"Yes"	"no"	"no"	"no"	"legacy"	"2"	"0"	"2"	"0"	"C:/Users/Laptop3/Desktop/Wednesday 2102/subject-67.csv"	"3"	"xpyriment"	"Jazzy James"	"3.1.4"	"0"	"1"	"1"	"18668"	"18668"	"2"	"legacy"	"1024"	"2"	"48000"	"-16"	"experiment"	"67"	"odd"	"legacy"	NA	"97456"	"93264"	NA	NA	NA	"93264"	NA	"1578"	"87072"	"1578"	NA	NA	"1583"	"1583"	"25184"	"25183"	"25163"	"68403"	"97456"	NA	NA	NA	NA	NA	"68401"	"lineup1"	"0"	"0"	"0"	"no"	"no"	"1366"
"52"	""	"undefined"	"undefined"	"undefined"	"undefined"	"white"	"no"	"xpyriment"	"legacy"	"legacy"	"0"	"no"	"relative"	"undefined"	"undefined"	"0"	"3"	"3"	"0"	"0"	"0"	"3"	"0"	"0"	"3"	"0"	"0"	"0"	"0"	"0"	"0"	"0"	"0"	"3"	"5"	"0"	"0"	"0"	"0"	"0"	"3"	"744"	"604"	"02/21/18 15:33:02"	"Executes Python code"	"yes"	""	"lineup_liveWOMEN_W.osexp"	"C:\Users\Laptop3\Desktop\Wednesday 2102"	"no"	"mono"	"no"	"24"	"no"	"black"	"no"	"Continue"	"yes"	"768"	"No"	"no"	"no"	"no"	"legacy"	"3"	"0"	"3"	"0"	"C:/Users/Laptop3/Desktop/Wednesday 2102/subject-67.csv"	"4"	"xpyriment"	"Jazzy James"	"3.1.4"	"0"	"1"	"1"	"4714"	"4714"	"2"	"legacy"	"1024"	"2"	"48000"	"-16"	"experiment"	"67"	"odd"	"legacy"	NA	"97456"	"104688"	NA	NA	NA	"93264"	NA	"1578"	"102280"	"1578"	NA	NA	"1583"	"1583"	"25184"	"25183"	"25163"	"97565"	"104688"	NA	NA	NA	NA	NA	"97564"	"lineup1"	"0"	"0"	"0"	"no"	"no"	"1366"
"53"	""	"undefined"	"undefined"	"undefined"	"undefined"	"white"	"no"	"xpyriment"	"legacy"	"legacy"	"0"	"no"	"relative"	"undefined"	"undefined"	"0"	"4"	"4"	"0"	"0"	"0"	"4"	"0"	"0"	"4"	"0"	"0"	"0"	"0"	"0"	"0"	"0"	"0"	"4"	"6"	"0"	"0"	"0"	"0"	"0"	"4"	"346"	"658"	"02/21/18 15:33:02"	"Executes Python code"	"yes"	""	"lineup_liveWOMEN_W.osexp"	"C:\Users\Laptop3\Desktop\Wednesday 2102"	"no"	"mono"	"no"	"24"	"no"	"black"	"no"	"Continue"	"yes"	"768"	"No"	"no"	"no"	"no"	"legacy"	"4"	"0"	"4"	"0"	"C:/Users/Laptop3/Desktop/Wednesday 2102/subject-67.csv"	"5"	"xpyriment"	"Jazzy James"	"3.1.4"	"0"	"1"	"1"	"20862"	"20862"	"2"	"legacy"	"1024"	"2"	"48000"	"-16"	"experiment"	"67"	"odd"	"legacy"	NA	"97456"	"128183"	NA	NA	NA	"93264"	NA	"1578"	"125655"	"1578"	NA	NA	"1583"	"1583"	"25184"	"25183"	"25163"	"104793"	"128183"	NA	NA	NA	NA	NA	"104792"	"lineup1"	"0"	"0"	"0"	"no"	"no"	"1366"
"54"	""	"undefined"	"undefined"	"undefined"	"undefined"	"white"	"no"	"xpyriment"	"legacy"	"legacy"	"0"	"no"	"relative"	"undefined"	"undefined"	"0"	"5"	"5"	"0"	"0"	"0"	"5"	"0"	"0"	"5"	"0"	"0"	"0"	"0"	"0"	"0"	"0"	"0"	"5"	"7"	"0"	"0"	"0"	"0"	"0"	"5"	"324"	"563"	"02/21/18 15:33:02"	"Executes Python code"	"yes"	""	"lineup_liveWOMEN_W.osexp"	"C:\Users\Laptop3\Desktop\Wednesday 2102"	"no"	"mono"	"no"	"24"	"no"	"black"	"no"	"Continue"	"yes"	"768"	"No"	"no"	"no"	"no"	"legacy"	"5"	"0"	"5"	"0"	"C:/Users/Laptop3/Desktop/Wednesday 2102/subject-67.csv"	"6"	"xpyriment"	"Jazzy James"	"3.1.4"	"0"	"1"	"1"	"11752"	"11752"	"2"	"legacy"	"1024"	"2"	"48000"	"-16"	"experiment"	"67"	"odd"	"legacy"	NA	"97456"	"142683"	NA	NA	NA	"93264"	NA	"1578"	"140039"	"1578"	NA	NA	"1583"	"1583"	"25184"	"25183"	"25163"	"128287"	"142683"	NA	NA	NA	NA	NA	"128286"	"lineup1"	"0"	"0"	"0"	"no"	"no"	"1366"
"55"	""	"undefined"	"undefined"	"undefined"	"undefined"	"white"	"no"	"xpyriment"	"legacy"	"legacy"	"0"	"no"	"relative"	"undefined"	"undefined"	"0"	"5"	"5"	"0"	"0"	"0"	"5"	"0"	"0"	"5"	"0"	"0"	"0"	"0"	"0"	"0"	"0"	"0"	"5"	"7"	"0"	"0"	"0"	"0"	"0"	"5"	"324"	"563"	"02/21/18 15:33:02"	"Executes Python code"	"yes"	""	"lineup_liveWOMEN_W.osexp"	"C:\Users\Laptop3\Desktop\Wednesday 2102"	"no"	"mono"	"no"	"24"	"no"	"black"	"no"	"Continue"	"yes"	"768"	"No"	"Yes"	"One"	"No"	"legacy"	"5"	"0"	"5"	"0"	"C:/Users/Laptop3/Desktop/Wednesday 2102/subject-67.csv"	"6"	"xpyriment"	"Jazzy James"	"3.1.4"	"0"	"1"	"1"	"11752"	"11752"	"2"	"legacy"	"1024"	"2"	"48000"	"-16"	"experiment"	"67"	"odd"	"legacy"	"151642"	"97456"	"142683"	"148012"	"151642"	"183699"	"93264"	NA	"1578"	"140039"	"1578"	NA	NA	"1583"	"1583"	"25184"	"25183"	"25163"	"128287"	"183699"	"142720"	"148012"	"179507"	NA	NA	"128286"	"lineup1"	"0"	"0"	"0"	"no"	"no"	"1366"
"56"	""	"undefined"	"undefined"	"undefined"	"undefined"	"white"	"no"	"xpyriment"	"legacy"	"legacy"	"0"	"no"	"relative"	"undefined"	"undefined"	"0"	"5"	"5"	"0"	"0"	"0"	"5"	"0"	"0"	"5"	"0"	"0"	"0"	"0"	"0"	"0"	"0"	"0"	"5"	"7"	"0"	"0"	"0"	"0"	"0"	"5"	"324"	"563"	"02/21/18 15:33:02"	"Executes Python code"	"yes"	""	"lineup_liveWOMEN_W.osexp"	"C:\Users\Laptop3\Desktop\Wednesday 2102"	"no"	"mono"	"no"	"24"	"no"	"black"	"no"	"Click to end"	"yes"	"768"	"No"	"Yes"	"One"	"No"	"legacy"	"5"	"0"	"5"	"0"	"C:/Users/Laptop3/Desktop/Wednesday 2102/subject-67.csv"	"6"	"xpyriment"	"Jazzy James"	"3.1.4"	"0"	"1"	"1"	"11752"	"11752"	"2"	"legacy"	"1024"	"2"	"48000"	"-16"	"experiment"	"67"	"odd"	"legacy"	"151642"	"97456"	"142683"	"148012"	"151642"	"183699"	"93264"	"183731"	"1578"	"140039"	"1578"	NA	NA	"1583"	"1583"	"25184"	"25183"	"25163"	"128287"	"184305"	"142720"	"148012"	"179507"	NA	NA	"128286"	"lineup1"	"0"	"0"	"0"	"no"	"no"	"1366"
"57"	""	"undefined"	"undefined"	"undefined"	"undefined"	"white"	"no"	"xpyriment"	"legacy"	"legacy"	"0"	"no"	"relative"	"undefined"	"undefined"	"0"	"0"	"0"	"0"	"0"	"0"	"0"	"0"	"0"	"0"	"0"	"0"	"0"	"0"	"0"	"0"	"0"	"0"	"0"	"2"	"0"	"0"	"0"	"0"	"0"	"0"	"666"	"704"	"02/21/18 15:20:56"	"Executes Python code"	"yes"	""	"lineup_liveWOMEN_W.osexp"	"C:\Users\Laptop3\Desktop\Wednesday 2102"	"no"	"mono"	"no"	"24"	"no"	"black"	"no"	"Continue"	"yes"	"768"	"Not sure"	"no"	"no"	"no"	"legacy"	"0"	"0"	"0"	"0"	"C:/Users/Laptop3/Desktop/Wednesday 2102/subject-68.csv"	"1"	"xpyriment"	"Jazzy James"	"3.1.4"	"0"	"1"	"1"	"16573"	"16573"	"2"	"legacy"	"1024"	"2"	"48000"	"-16"	"experiment"	"68"	"even"	"legacy"	NA	NA	"46087"	NA	NA	NA	NA	NA	"1632"	"41775"	"1632"	NA	NA	"1637"	"1637"	"25136"	"25135"	"25117"	"25201"	"46087"	NA	NA	NA	NA	NA	"25200"	"lineup1"	"0"	"0"	"0"	"no"	"no"	"1366"
"58"	""	"undefined"	"undefined"	"undefined"	"undefined"	"white"	"no"	"xpyriment"	"legacy"	"legacy"	"0"	"no"	"relative"	"undefined"	"undefined"	"0"	"1"	"1"	"0"	"0"	"0"	"1"	"0"	"0"	"1"	"0"	"0"	"0"	"0"	"0"	"0"	"0"	"0"	"1"	"3"	"0"	"0"	"0"	"0"	"0"	"1"	"53"	"562"	"02/21/18 15:20:56"	"Executes Python code"	"yes"	""	"lineup_liveWOMEN_W.osexp"	"C:\Users\Laptop3\Desktop\Wednesday 2102"	"no"	"mono"	"no"	"24"	"no"	"black"	"no"	"Continue"	"yes"	"768"	"No"	"no"	"no"	"no"	"legacy"	"1"	"0"	"1"	"0"	"C:/Users/Laptop3/Desktop/Wednesday 2102/subject-68.csv"	"2"	"xpyriment"	"Jazzy James"	"3.1.4"	"0"	"1"	"1"	"7292"	"7292"	"2"	"legacy"	"1024"	"2"	"48000"	"-16"	"experiment"	"68"	"even"	"legacy"	NA	NA	"57141"	NA	NA	NA	NA	NA	"1632"	"53487"	"1632"	NA	NA	"1637"	"1637"	"25136"	"25135"	"25117"	"46194"	"57142"	NA	NA	NA	NA	NA	"46192"	"lineup1"	"0"	"0"	"0"	"no"	"no"	"1366"
"59"	""	"undefined"	"undefined"	"undefined"	"undefined"	"white"	"no"	"xpyriment"	"legacy"	"legacy"	"0"	"no"	"relative"	"undefined"	"undefined"	"0"	"2"	"2"	"0"	"0"	"0"	"2"	"0"	"0"	"2"	"0"	"0"	"0"	"0"	"0"	"0"	"0"	"0"	"2"	"4"	"0"	"0"	"0"	"0"	"0"	"2"	"116"	"509"	"02/21/18 15:20:56"	"Executes Python code"	"yes"	""	"lineup_liveWOMEN_W.osexp"	"C:\Users\Laptop3\Desktop\Wednesday 2102"	"no"	"mono"	"no"	"24"	"no"	"black"	"no"	"Continue"	"yes"	"768"	"No"	"no"	"no"	"no"	"legacy"	"2"	"0"	"2"	"0"	"C:/Users/Laptop3/Desktop/Wednesday 2102/subject-68.csv"	"3"	"xpyriment"	"Jazzy James"	"3.1.4"	"0"	"1"	"1"	"11334"	"11334"	"2"	"legacy"	"1024"	"2"	"48000"	"-16"	"experiment"	"68"	"even"	"legacy"	NA	NA	"71855"	NA	NA	NA	NA	NA	"1632"	"68583"	"1632"	NA	NA	"1637"	"1637"	"25136"	"25135"	"25117"	"57248"	"71855"	NA	NA	NA	NA	NA	"57247"	"lineup1"	"0"	"0"	"0"	"no"	"no"	"1366"
"60"	""	"undefined"	"undefined"	"undefined"	"undefined"	"white"	"no"	"xpyriment"	"legacy"	"legacy"	"0"	"no"	"relative"	"undefined"	"undefined"	"0"	"3"	"3"	"0"	"0"	"0"	"3"	"0"	"0"	"3"	"0"	"0"	"0"	"0"	"0"	"0"	"0"	"0"	"3"	"5"	"0"	"0"	"0"	"0"	"0"	"3"	"178"	"598"	"02/21/18 15:20:56"	"Executes Python code"	"yes"	""	"lineup_liveWOMEN_W.osexp"	"C:\Users\Laptop3\Desktop\Wednesday 2102"	"no"	"mono"	"no"	"24"	"no"	"black"	"no"	"Continue"	"yes"	"768"	"No"	"no"	"no"	"no"	"legacy"	"3"	"0"	"3"	"0"	"C:/Users/Laptop3/Desktop/Wednesday 2102/subject-68.csv"	"4"	"xpyriment"	"Jazzy James"	"3.1.4"	"0"	"1"	"1"	"4407"	"4407"	"2"	"legacy"	"1024"	"2"	"48000"	"-16"	"experiment"	"68"	"even"	"legacy"	NA	NA	"79264"	NA	NA	NA	NA	NA	"1632"	"76366"	"1632"	NA	NA	"1637"	"1637"	"25136"	"25135"	"25117"	"71959"	"79265"	NA	NA	NA	NA	NA	"71958"	"lineup1"	"0"	"0"	"0"	"no"	"no"	"1366"
"61"	""	"undefined"	"undefined"	"undefined"	"undefined"	"white"	"no"	"xpyriment"	"legacy"	"legacy"	"0"	"no"	"relative"	"undefined"	"undefined"	"0"	"4"	"4"	"0"	"0"	"0"	"4"	"0"	"0"	"4"	"0"	"0"	"0"	"0"	"0"	"0"	"0"	"0"	"4"	"6"	"0"	"0"	"0"	"0"	"0"	"4"	"107"	"641"	"02/21/18 15:20:56"	"Executes Python code"	"yes"	""	"lineup_liveWOMEN_W.osexp"	"C:\Users\Laptop3\Desktop\Wednesday 2102"	"no"	"mono"	"no"	"24"	"no"	"black"	"no"	"Continue"	"yes"	"768"	"Not sure"	"no"	"no"	"no"	"legacy"	"4"	"0"	"4"	"0"	"C:/Users/Laptop3/Desktop/Wednesday 2102/subject-68.csv"	"5"	"xpyriment"	"Jazzy James"	"3.1.4"	"0"	"1"	"1"	"18034"	"18034"	"2"	"legacy"	"1024"	"2"	"48000"	"-16"	"experiment"	"68"	"even"	"legacy"	NA	NA	"100857"	NA	NA	NA	NA	NA	"1632"	"97406"	"1632"	NA	NA	"1637"	"1637"	"25136"	"25135"	"25117"	"79371"	"100857"	NA	NA	NA	NA	NA	"79370"	"lineup1"	"0"	"0"	"0"	"no"	"no"	"1366"
"62"	""	"undefined"	"undefined"	"undefined"	"undefined"	"white"	"no"	"xpyriment"	"legacy"	"legacy"	"0"	"60"	"relative"	"undefined"	"undefined"	"0"	"5"	"5"	"0"	"0"	"0"	"5"	"0"	"0"	"5"	"0"	"0"	"0"	"0"	"0"	"0"	"0"	"0"	"5"	"7"	"0"	"0"	"0"	"0"	"0"	"5"	"230"	"761"	"02/21/18 15:20:56"	"Executes Python code"	"yes"	""	"lineup_liveWOMEN_W.osexp"	"C:\Users\Laptop3\Desktop\Wednesday 2102"	"no"	"mono"	"no"	"24"	"no"	"black"	"no"	"Continue"	"yes"	"768"	"Yes"	"no"	"no"	"no"	"legacy"	"5"	"0"	"5"	"0"	"C:/Users/Laptop3/Desktop/Wednesday 2102/subject-68.csv"	"6"	"xpyriment"	"Jazzy James"	"3.1.4"	"0"	"1"	"1"	"12099"	"12099"	"2"	"legacy"	"1024"	"2"	"48000"	"-16"	"experiment"	"68"	"even"	"legacy"	NA	"223292"	"211167"	NA	NA	NA	"211168"	NA	"1632"	"113062"	"1632"	NA	NA	"1637"	"1637"	"25136"	"25135"	"25117"	"100962"	"223292"	NA	NA	NA	NA	NA	"100961"	"lineup1"	"0"	"0"	"0"	"no"	"no"	"1366"
"63"	""	"undefined"	"undefined"	"undefined"	"undefined"	"white"	"no"	"xpyriment"	"legacy"	"legacy"	"0"	"60"	"relative"	"undefined"	"undefined"	"0"	"5"	"5"	"0"	"0"	"0"	"5"	"0"	"0"	"5"	"0"	"0"	"0"	"0"	"0"	"0"	"0"	"0"	"5"	"7"	"0"	"0"	"0"	"0"	"0"	"5"	"230"	"761"	"02/21/18 15:20:56"	"Executes Python code"	"yes"	""	"lineup_liveWOMEN_W.osexp"	"C:\Users\Laptop3\Desktop\Wednesday 2102"	"no"	"mono"	"no"	"24"	"no"	"black"	"no"	"Continue"	"yes"	"768"	"Yes"	"Yes"	"One"	"No"	"legacy"	"5"	"0"	"5"	"0"	"C:/Users/Laptop3/Desktop/Wednesday 2102/subject-68.csv"	"6"	"xpyriment"	"Jazzy James"	"3.1.4"	"0"	"1"	"1"	"12099"	"12099"	"2"	"legacy"	"1024"	"2"	"48000"	"-16"	"experiment"	"68"	"even"	"legacy"	"228948"	"223292"	"211167"	"227405"	"228948"	"234796"	"211168"	NA	"1632"	"113062"	"1632"	NA	NA	"1637"	"1637"	"25136"	"25135"	"25117"	"100962"	"234796"	"223330"	"227405"	"231488"	NA	NA	"100961"	"lineup1"	"0"	"0"	"0"	"no"	"no"	"1366"
"64"	""	"undefined"	"undefined"	"undefined"	"undefined"	"white"	"no"	"xpyriment"	"legacy"	"legacy"	"0"	"60"	"relative"	"undefined"	"undefined"	"0"	"5"	"5"	"0"	"0"	"0"	"5"	"0"	"0"	"5"	"0"	"0"	"0"	"0"	"0"	"0"	"0"	"0"	"5"	"7"	"0"	"0"	"0"	"0"	"0"	"5"	"230"	"761"	"02/21/18 15:20:56"	"Executes Python code"	"yes"	""	"lineup_liveWOMEN_W.osexp"	"C:\Users\Laptop3\Desktop\Wednesday 2102"	"no"	"mono"	"no"	"24"	"no"	"black"	"no"	"Click to end"	"yes"	"768"	"Yes"	"Yes"	"One"	"No"	"legacy"	"5"	"0"	"5"	"0"	"C:/Users/Laptop3/Desktop/Wednesday 2102/subject-68.csv"	"6"	"xpyriment"	"Jazzy James"	"3.1.4"	"0"	"1"	"1"	"12099"	"12099"	"2"	"legacy"	"1024"	"2"	"48000"	"-16"	"experiment"	"68"	"even"	"legacy"	"228948"	"223292"	"211167"	"227405"	"228948"	"234796"	"211168"	"234829"	"1632"	"113062"	"1632"	NA	NA	"1637"	"1637"	"25136"	"25135"	"25117"	"100962"	"236081"	"223330"	"227405"	"231488"	NA	NA	"100961"	"lineup1"	"0"	"0"	"0"	"no"	"no"	"1366"
"65"	""	"undefined"	"undefined"	"undefined"	"undefined"	"white"	"no"	"xpyriment"	"legacy"	"legacy"	"0"	"no"	"relative"	"undefined"	"undefined"	"0"	"0"	"0"	"0"	"0"	"0"	"0"	"0"	"0"	"0"	"0"	"0"	"0"	"0"	"0"	"0"	"0"	"0"	"0"	"2"	"0"	"0"	"0"	"0"	"0"	"0"	"0"	"367"	"02/21/18 15:42:13"	"Executes Python code"	"yes"	""	"lineup_liveWOMEN_W.osexp"	"C:\Users\Laptop3\Desktop\Wednesday 2102"	"no"	"mono"	"no"	"24"	"no"	"black"	"no"	"Continue"	"yes"	"768"	"No"	"no"	"no"	"no"	"legacy"	"0"	"0"	"0"	"0"	"C:/Users/Laptop3/Desktop/Wednesday 2102/subject-69.csv"	"1"	"xpyriment"	"Jazzy James"	"3.1.4"	"0"	"1"	"1"	"24729"	"24729"	"2"	"legacy"	"1024"	"2"	"48000"	"-16"	"experiment"	"69"	"odd"	"legacy"	NA	NA	"65752"	NA	NA	NA	NA	NA	"1649"	"62238"	"1649"	NA	NA	"1653"	"1653"	"37441"	"37441"	"37421"	"37509"	"65752"	NA	NA	NA	NA	NA	"37507"	"lineup1"	"0"	"0"	"0"	"no"	"no"	"1366"
"66"	""	"undefined"	"undefined"	"undefined"	"undefined"	"white"	"no"	"xpyriment"	"legacy"	"legacy"	"0"	"no"	"relative"	"undefined"	"undefined"	"0"	"1"	"1"	"0"	"0"	"0"	"1"	"0"	"0"	"1"	"0"	"0"	"0"	"0"	"0"	"0"	"0"	"0"	"1"	"3"	"0"	"0"	"0"	"0"	"0"	"1"	"680"	"372"	"02/21/18 15:42:13"	"Executes Python code"	"yes"	""	"lineup_liveWOMEN_W.osexp"	"C:\Users\Laptop3\Desktop\Wednesday 2102"	"no"	"mono"	"no"	"24"	"no"	"black"	"no"	"Continue"	"yes"	"768"	"Not sure"	"no"	"no"	"no"	"legacy"	"1"	"0"	"1"	"0"	"C:/Users/Laptop3/Desktop/Wednesday 2102/subject-69.csv"	"2"	"xpyriment"	"Jazzy James"	"3.1.4"	"0"	"1"	"1"	"10211"	"10211"	"2"	"legacy"	"1024"	"2"	"48000"	"-16"	"experiment"	"69"	"odd"	"legacy"	NA	NA	"79446"	NA	NA	NA	NA	NA	"1649"	"76069"	"1649"	NA	NA	"1653"	"1653"	"37441"	"37441"	"37421"	"65858"	"79446"	NA	NA	NA	NA	NA	"65856"	"lineup1"	"0"	"0"	"0"	"no"	"no"	"1366"
"67"	""	"undefined"	"undefined"	"undefined"	"undefined"	"white"	"no"	"xpyriment"	"legacy"	"legacy"	"0"	"no"	"relative"	"undefined"	"undefined"	"0"	"2"	"2"	"0"	"0"	"0"	"2"	"0"	"0"	"2"	"0"	"0"	"0"	"0"	"0"	"0"	"0"	"0"	"2"	"4"	"0"	"0"	"0"	"0"	"0"	"2"	"400"	"83"	"02/21/18 15:42:13"	"Executes Python code"	"yes"	""	"lineup_liveWOMEN_W.osexp"	"C:\Users\Laptop3\Desktop\Wednesday 2102"	"no"	"mono"	"no"	"24"	"no"	"black"	"no"	"Continue"	"yes"	"768"	"No"	"no"	"no"	"no"	"legacy"	"2"	"0"	"2"	"0"	"C:/Users/Laptop3/Desktop/Wednesday 2102/subject-69.csv"	"3"	"xpyriment"	"Jazzy James"	"3.1.4"	"0"	"1"	"1"	"10015"	"10015"	"2"	"legacy"	"1024"	"2"	"48000"	"-16"	"experiment"	"69"	"odd"	"legacy"	NA	NA	"91695"	NA	NA	NA	NA	NA	"1649"	"89565"	"1649"	NA	NA	"1653"	"1653"	"37441"	"37441"	"37421"	"79550"	"91695"	NA	NA	NA	NA	NA	"79549"	"lineup1"	"0"	"0"	"0"	"no"	"no"	"1366"
"68"	""	"undefined"	"undefined"	"undefined"	"undefined"	"white"	"no"	"xpyriment"	"legacy"	"legacy"	"0"	"60"	"relative"	"undefined"	"undefined"	"0"	"3"	"3"	"0"	"0"	"0"	"3"	"0"	"0"	"3"	"0"	"0"	"0"	"0"	"0"	"0"	"0"	"0"	"3"	"5"	"0"	"0"	"0"	"0"	"0"	"3"	"693"	"761"	"02/21/18 15:42:13"	"Executes Python code"	"yes"	""	"lineup_liveWOMEN_W.osexp"	"C:\Users\Laptop3\Desktop\Wednesday 2102"	"no"	"mono"	"no"	"24"	"no"	"black"	"no"	"Continue"	"yes"	"768"	"Yes"	"no"	"no"	"no"	"legacy"	"3"	"0"	"3"	"0"	"C:/Users/Laptop3/Desktop/Wednesday 2102/subject-69.csv"	"4"	"xpyriment"	"Jazzy James"	"3.1.4"	"0"	"1"	"1"	"14284"	"14284"	"2"	"legacy"	"1024"	"2"	"48000"	"-16"	"experiment"	"69"	"odd"	"legacy"	NA	"116934"	"108340"	NA	NA	NA	"108340"	NA	"1649"	"106085"	"1649"	NA	NA	"1653"	"1653"	"37441"	"37441"	"37421"	"91801"	"116934"	NA	NA	NA	NA	NA	"91800"	"lineup1"	"0"	"0"	"0"	"no"	"no"	"1366"
"69"	""	"undefined"	"undefined"	"undefined"	"undefined"	"white"	"no"	"xpyriment"	"legacy"	"legacy"	"0"	"no"	"relative"	"undefined"	"undefined"	"0"	"4"	"4"	"0"	"0"	"0"	"4"	"0"	"0"	"4"	"0"	"0"	"0"	"0"	"0"	"0"	"0"	"0"	"4"	"6"	"0"	"0"	"0"	"0"	"0"	"4"	"693"	"409"	"02/21/18 15:42:13"	"Executes Python code"	"yes"	""	"lineup_liveWOMEN_W.osexp"	"C:\Users\Laptop3\Desktop\Wednesday 2102"	"no"	"mono"	"no"	"24"	"no"	"black"	"no"	"Continue"	"yes"	"768"	"Not sure"	"no"	"no"	"no"	"legacy"	"4"	"0"	"4"	"0"	"C:/Users/Laptop3/Desktop/Wednesday 2102/subject-69.csv"	"5"	"xpyriment"	"Jazzy James"	"3.1.4"	"0"	"1"	"1"	"5283"	"5283"	"2"	"legacy"	"1024"	"2"	"48000"	"-16"	"experiment"	"69"	"odd"	"legacy"	NA	"116934"	"124326"	NA	NA	NA	"108340"	NA	"1649"	"122325"	"1649"	NA	NA	"1653"	"1653"	"37441"	"37441"	"37421"	"117042"	"124326"	NA	NA	NA	NA	NA	"117040"	"lineup1"	"0"	"0"	"0"	"no"	"no"	"1366"
"70"	""	"undefined"	"undefined"	"undefined"	"undefined"	"white"	"no"	"xpyriment"	"legacy"	"legacy"	"0"	"no"	"relative"	"undefined"	"undefined"	"0"	"5"	"5"	"0"	"0"	"0"	"5"	"0"	"0"	"5"	"0"	"0"	"0"	"0"	"0"	"0"	"0"	"0"	"5"	"7"	"0"	"0"	"0"	"0"	"0"	"5"	"522"	"740"	"02/21/18 15:42:13"	"Executes Python code"	"yes"	""	"lineup_liveWOMEN_W.osexp"	"C:\Users\Laptop3\Desktop\Wednesday 2102"	"no"	"mono"	"no"	"24"	"no"	"black"	"no"	"Continue"	"yes"	"768"	"Not sure"	"no"	"no"	"no"	"legacy"	"5"	"0"	"5"	"0"	"C:/Users/Laptop3/Desktop/Wednesday 2102/subject-69.csv"	"6"	"xpyriment"	"Jazzy James"	"3.1.4"	"0"	"1"	"1"	"13133"	"13133"	"2"	"legacy"	"1024"	"2"	"48000"	"-16"	"experiment"	"69"	"odd"	"legacy"	NA	"116934"	"140202"	NA	NA	NA	"108340"	NA	"1649"	"137565"	"1649"	NA	NA	"1653"	"1653"	"37441"	"37441"	"37421"	"124432"	"140202"	NA	NA	NA	NA	NA	"124431"	"lineup1"	"0"	"0"	"0"	"no"	"no"	"1366"
"71"	""	"undefined"	"undefined"	"undefined"	"undefined"	"white"	"no"	"xpyriment"	"legacy"	"legacy"	"0"	"no"	"relative"	"undefined"	"undefined"	"0"	"5"	"5"	"0"	"0"	"0"	"5"	"0"	"0"	"5"	"0"	"0"	"0"	"0"	"0"	"0"	"0"	"0"	"5"	"7"	"0"	"0"	"1"	"0"	"0"	"5"	"522"	"740"	"02/21/18 15:42:13"	"Executes Python code"	"yes"	""	"lineup_liveWOMEN_W.osexp"	"C:\Users\Laptop3\Desktop\Wednesday 2102"	"no"	"mono"	"no"	"24"	"no"	"black"	"no"	"Continue"	"yes"	"768"	"Not sure"	"Yes"	"One"	"No"	"legacy"	"5"	"0"	"5"	"0"	"C:/Users/Laptop3/Desktop/Wednesday 2102/subject-69.csv"	"6"	"xpyriment"	"Jazzy James"	"3.1.4"	"0"	"1"	"1"	"13133"	"13133"	"2"	"legacy"	"1024"	"2"	"48000"	"-16"	"experiment"	"69"	"odd"	"legacy"	"148416"	"116934"	"140202"	"144415"	"148416"	"151938"	"108340"	NA	"1649"	"137565"	"1649"	NA	NA	"1653"	"1653"	"37441"	"37441"	"37421"	"124432"	"154025"	"140241"	"144415"	"151941"	NA	NA	"124431"	"lineup1"	"0"	"0"	"0"	"no"	"no"	"1366"
"72"	""	"undefined"	"undefined"	"undefined"	"undefined"	"white"	"no"	"xpyriment"	"legacy"	"legacy"	"0"	"no"	"relative"	"undefined"	"undefined"	"0"	"5"	"5"	"0"	"0"	"0"	"5"	"0"	"0"	"5"	"0"	"0"	"0"	"0"	"0"	"0"	"0"	"0"	"5"	"7"	"0"	"0"	"1"	"0"	"0"	"5"	"522"	"740"	"02/21/18 15:42:13"	"Executes Python code"	"yes"	""	"lineup_liveWOMEN_W.osexp"	"C:\Users\Laptop3\Desktop\Wednesday 2102"	"no"	"mono"	"no"	"24"	"no"	"black"	"no"	"Click to end"	"yes"	"768"	"Not sure"	"Yes"	"One"	"No"	"legacy"	"5"	"0"	"5"	"0"	"C:/Users/Laptop3/Desktop/Wednesday 2102/subject-69.csv"	"6"	"xpyriment"	"Jazzy James"	"3.1.4"	"0"	"1"	"1"	"13133"	"13133"	"2"	"legacy"	"1024"	"2"	"48000"	"-16"	"experiment"	"69"	"odd"	"legacy"	"148416"	"116934"	"140202"	"144415"	"148416"	"151938"	"108340"	"154059"	"1649"	"137565"	"1649"	NA	NA	"1653"	"1653"	"37441"	"37441"	"37421"	"124432"	"154534"	"140241"	"144415"	"151941"	NA	NA	"124431"	"lineup1"	"0"	"0"	"0"	"no"	"no"	"1366"
"73"	""	"undefined"	"undefined"	"undefined"	"undefined"	"white"	"no"	"xpyriment"	"legacy"	"legacy"	"0"	"no"	"relative"	"undefined"	"undefined"	"0"	"0"	"0"	"0"	"0"	"0"	"0"	"0"	"0"	"0"	"0"	"0"	"0"	"0"	"0"	"0"	"0"	"0"	"0"	"2"	"0"	"0"	"0"	"0"	"0"	"0"	"36"	"393"	"02/21/18 15:50:50"	"Executes Python code"	"yes"	""	"lineup_liveWOMEN_W.osexp"	"C:\Users\Laptop3\Desktop\Wednesday 2102"	"no"	"mono"	"no"	"24"	"no"	"black"	"no"	"Continue"	"yes"	"768"	"No"	"no"	"no"	"no"	"legacy"	"0"	"0"	"0"	"0"	"C:/Users/Laptop3/Desktop/Wednesday 2102/subject-70.csv"	"1"	"xpyriment"	"Jazzy James"	"3.1.4"	"0"	"1"	"1"	"12355"	"12355"	"2"	"legacy"	"1024"	"2"	"48000"	"-16"	"experiment"	"70"	"even"	"legacy"	NA	NA	"42297"	NA	NA	NA	NA	NA	"1707"	"38389"	"1707"	NA	NA	"1711"	"1711"	"25965"	"25965"	"25947"	"26033"	"42297"	NA	NA	NA	NA	NA	"26032"	"lineup1"	"0"	"0"	"0"	"no"	"no"	"1366"
"74"	""	"undefined"	"undefined"	"undefined"	"undefined"	"white"	"no"	"xpyriment"	"legacy"	"legacy"	"0"	"no"	"relative"	"undefined"	"undefined"	"0"	"1"	"1"	"0"	"0"	"0"	"1"	"0"	"0"	"1"	"0"	"0"	"0"	"0"	"0"	"0"	"0"	"0"	"1"	"3"	"0"	"0"	"0"	"0"	"0"	"1"	"144"	"681"	"02/21/18 15:50:50"	"Executes Python code"	"yes"	""	"lineup_liveWOMEN_W.osexp"	"C:\Users\Laptop3\Desktop\Wednesday 2102"	"no"	"mono"	"no"	"24"	"no"	"black"	"no"	"Continue"	"yes"	"768"	"No"	"no"	"no"	"no"	"legacy"	"1"	"0"	"1"	"0"	"C:/Users/Laptop3/Desktop/Wednesday 2102/subject-70.csv"	"2"	"xpyriment"	"Jazzy James"	"3.1.4"	"0"	"1"	"1"	"6038"	"6038"	"2"	"legacy"	"1024"	"2"	"48000"	"-16"	"experiment"	"70"	"even"	"legacy"	NA	NA	"52086"	NA	NA	NA	NA	NA	"1707"	"48444"	"1707"	NA	NA	"1711"	"1711"	"25965"	"25965"	"25947"	"42405"	"52086"	NA	NA	NA	NA	NA	"42403"	"lineup1"	"0"	"0"	"0"	"no"	"no"	"1366"
"75"	""	"undefined"	"undefined"	"undefined"	"undefined"	"white"	"no"	"xpyriment"	"legacy"	"legacy"	"0"	"no"	"relative"	"undefined"	"undefined"	"0"	"2"	"2"	"0"	"0"	"0"	"2"	"0"	"0"	"2"	"0"	"0"	"0"	"0"	"0"	"0"	"0"	"0"	"2"	"4"	"0"	"0"	"0"	"0"	"0"	"2"	"240"	"529"	"02/21/18 15:50:50"	"Executes Python code"	"yes"	""	"lineup_liveWOMEN_W.osexp"	"C:\Users\Laptop3\Desktop\Wednesday 2102"	"no"	"mono"	"no"	"24"	"no"	"black"	"no"	"Continue"	"yes"	"768"	"No"	"no"	"no"	"no"	"legacy"	"2"	"0"	"2"	"0"	"C:/Users/Laptop3/Desktop/Wednesday 2102/subject-70.csv"	"3"	"xpyriment"	"Jazzy James"	"3.1.4"	"0"	"1"	"1"	"6406"	"6406"	"2"	"legacy"	"1024"	"2"	"48000"	"-16"	"experiment"	"70"	"even"	"legacy"	NA	NA	"61618"	NA	NA	NA	NA	NA	"1707"	"58596"	"1707"	NA	NA	"1711"	"1711"	"25965"	"25965"	"25947"	"52190"	"61618"	NA	NA	NA	NA	NA	"52188"	"lineup1"	"0"	"0"	"0"	"no"	"no"	"1366"
"76"	""	"undefined"	"undefined"	"undefined"	"undefined"	"white"	"no"	"xpyriment"	"legacy"	"legacy"	"0"	"no"	"relative"	"undefined"	"undefined"	"0"	"3"	"3"	"0"	"0"	"0"	"3"	"0"	"0"	"3"	"0"	"0"	"0"	"0"	"0"	"0"	"0"	"0"	"3"	"5"	"0"	"0"	"0"	"0"	"0"	"3"	"563"	"640"	"02/21/18 15:50:50"	"Executes Python code"	"yes"	""	"lineup_liveWOMEN_W.osexp"	"C:\Users\Laptop3\Desktop\Wednesday 2102"	"no"	"mono"	"no"	"24"	"no"	"black"	"no"	"Continue"	"yes"	"768"	"No"	"no"	"no"	"no"	"legacy"	"3"	"0"	"3"	"0"	"C:/Users/Laptop3/Desktop/Wednesday 2102/subject-70.csv"	"4"	"xpyriment"	"Jazzy James"	"3.1.4"	"0"	"1"	"1"	"5942"	"5942"	"2"	"legacy"	"1024"	"2"	"48000"	"-16"	"experiment"	"70"	"even"	"legacy"	NA	NA	"71070"	NA	NA	NA	NA	NA	"1707"	"67668"	"1707"	NA	NA	"1711"	"1711"	"25965"	"25965"	"25947"	"61725"	"71070"	NA	NA	NA	NA	NA	"61723"	"lineup1"	"0"	"0"	"0"	"no"	"no"	"1366"
"77"	""	"undefined"	"undefined"	"undefined"	"undefined"	"white"	"no"	"xpyriment"	"legacy"	"legacy"	"0"	"no"	"relative"	"undefined"	"undefined"	"0"	"4"	"4"	"0"	"0"	"0"	"4"	"0"	"0"	"4"	"0"	"0"	"0"	"0"	"0"	"0"	"0"	"0"	"4"	"6"	"0"	"0"	"0"	"0"	"0"	"4"	"306"	"570"	"02/21/18 15:50:50"	"Executes Python code"	"yes"	""	"lineup_liveWOMEN_W.osexp"	"C:\Users\Laptop3\Desktop\Wednesday 2102"	"no"	"mono"	"no"	"24"	"no"	"black"	"no"	"Continue"	"yes"	"768"	"No"	"no"	"no"	"no"	"legacy"	"4"	"0"	"4"	"0"	"C:/Users/Laptop3/Desktop/Wednesday 2102/subject-70.csv"	"5"	"xpyriment"	"Jazzy James"	"3.1.4"	"0"	"1"	"1"	"4836"	"4836"	"2"	"legacy"	"1024"	"2"	"48000"	"-16"	"experiment"	"70"	"even"	"legacy"	NA	NA	"79155"	NA	NA	NA	NA	NA	"1707"	"76012"	"1707"	NA	NA	"1711"	"1711"	"25965"	"25965"	"25947"	"71176"	"79155"	NA	NA	NA	NA	NA	"71174"	"lineup1"	"0"	"0"	"0"	"no"	"no"	"1366"
"78"	""	"undefined"	"undefined"	"undefined"	"undefined"	"white"	"no"	"xpyriment"	"legacy"	"legacy"	"0"	"no"	"relative"	"undefined"	"undefined"	"0"	"5"	"5"	"0"	"0"	"0"	"5"	"0"	"0"	"5"	"0"	"0"	"0"	"0"	"0"	"0"	"0"	"0"	"5"	"7"	"0"	"0"	"0"	"0"	"0"	"5"	"301"	"636"	"02/21/18 15:50:50"	"Executes Python code"	"yes"	""	"lineup_liveWOMEN_W.osexp"	"C:\Users\Laptop3\Desktop\Wednesday 2102"	"no"	"mono"	"no"	"24"	"no"	"black"	"no"	"Continue"	"yes"	"768"	"No"	"no"	"no"	"no"	"legacy"	"5"	"0"	"5"	"0"	"C:/Users/Laptop3/Desktop/Wednesday 2102/subject-70.csv"	"6"	"xpyriment"	"Jazzy James"	"3.1.4"	"0"	"1"	"1"	"8887"	"8887"	"2"	"legacy"	"1024"	"2"	"48000"	"-16"	"experiment"	"70"	"even"	"legacy"	NA	NA	"91311"	NA	NA	NA	NA	NA	"1707"	"88149"	"1707"	NA	NA	"1711"	"1711"	"25965"	"25965"	"25947"	"79261"	"91311"	NA	NA	NA	NA	NA	"79260"	"lineup1"	"0"	"0"	"0"	"no"	"no"	"1366"
"79"	""	"undefined"	"undefined"	"undefined"	"undefined"	"white"	"no"	"xpyriment"	"legacy"	"legacy"	"0"	"no"	"relative"	"undefined"	"undefined"	"0"	"5"	"5"	"0"	"0"	"0"	"5"	"0"	"0"	"5"	"0"	"0"	"0"	"0"	"0"	"0"	"0"	"0"	"5"	"7"	"0"	"0"	"0"	"0"	"0"	"5"	"301"	"636"	"02/21/18 15:50:50"	"Executes Python code"	"yes"	""	"lineup_liveWOMEN_W.osexp"	"C:\Users\Laptop3\Desktop\Wednesday 2102"	"no"	"mono"	"no"	"24"	"no"	"black"	"no"	"Continue"	"yes"	"768"	"No"	"No"	"no"	"No"	"legacy"	"5"	"0"	"5"	"0"	"C:/Users/Laptop3/Desktop/Wednesday 2102/subject-70.csv"	"6"	"xpyriment"	"Jazzy James"	"3.1.4"	"0"	"1"	"1"	"8887"	"8887"	"2"	"legacy"	"1024"	"2"	"48000"	"-16"	"experiment"	"70"	"even"	"legacy"	"94467"	NA	"91311"	"94467"	NA	"100166"	NA	NA	"1707"	"88149"	"1707"	NA	NA	"1711"	"1711"	"25965"	"25965"	"25947"	"79261"	"100166"	"91349"	NA	"98603"	NA	NA	"79260"	"lineup1"	"0"	"0"	"0"	"no"	"no"	"1366"
"80"	""	"undefined"	"undefined"	"undefined"	"undefined"	"white"	"no"	"xpyriment"	"legacy"	"legacy"	"0"	"no"	"relative"	"undefined"	"undefined"	"0"	"5"	"5"	"0"	"0"	"0"	"5"	"0"	"0"	"5"	"0"	"0"	"0"	"0"	"0"	"0"	"0"	"0"	"5"	"7"	"0"	"0"	"0"	"0"	"0"	"5"	"301"	"636"	"02/21/18 15:50:50"	"Executes Python code"	"yes"	""	"lineup_liveWOMEN_W.osexp"	"C:\Users\Laptop3\Desktop\Wednesday 2102"	"no"	"mono"	"no"	"24"	"no"	"black"	"no"	"Click to end"	"yes"	"768"	"No"	"No"	"no"	"No"	"legacy"	"5"	"0"	"5"	"0"	"C:/Users/Laptop3/Desktop/Wednesday 2102/subject-70.csv"	"6"	"xpyriment"	"Jazzy James"	"3.1.4"	"0"	"1"	"1"	"8887"	"8887"	"2"	"legacy"	"1024"	"2"	"48000"	"-16"	"experiment"	"70"	"even"	"legacy"	"94467"	NA	"91311"	"94467"	NA	"100166"	NA	"100200"	"1707"	"88149"	"1707"	NA	NA	"1711"	"1711"	"25965"	"25965"	"25947"	"79261"	"100772"	"91349"	NA	"98603"	NA	NA	"79260"	"lineup1"	"0"	"0"	"0"	"no"	"no"	"1366"
"81"	""	"undefined"	"undefined"	"undefined"	"undefined"	"white"	"no"	"xpyriment"	"legacy"	"legacy"	"0"	"no"	"relative"	"undefined"	"undefined"	"0"	"0"	"0"	"0"	"0"	"0"	"0"	"0"	"0"	"0"	"0"	"0"	"0"	"0"	"0"	"0"	"0"	"0"	"0"	"2"	"0"	"0"	"0"	"0"	"0"	"0"	"508"	"724"	"02/21/18 15:25:34"	"Executes Python code"	"yes"	""	"lineup_liveWOMEN_W.osexp"	"C:\Users\Laptop3\Desktop\Wednesday 2102"	"no"	"mono"	"no"	"24"	"no"	"black"	"no"	"Continue"	"yes"	"768"	"No"	"no"	"no"	"no"	"legacy"	"0"	"0"	"0"	"0"	"C:/Users/Laptop3/Desktop/Wednesday 2102/subject-71.csv"	"1"	"xpyriment"	"Jazzy James"	"3.1.4"	"0"	"1"	"1"	"18759"	"18759"	"2"	"legacy"	"1024"	"2"	"48000"	"-16"	"experiment"	"71"	"odd"	"legacy"	NA	NA	"62010"	NA	NA	NA	NA	NA	"1636"	"55689"	"1637"	NA	NA	"1641"	"1641"	"36862"	"36862"	"36843"	"36930"	"62011"	NA	NA	NA	NA	NA	"36928"	"lineup1"	"0"	"0"	"0"	"no"	"no"	"1366"
"82"	""	"undefined"	"undefined"	"undefined"	"undefined"	"white"	"no"	"xpyriment"	"legacy"	"legacy"	"0"	"no"	"relative"	"undefined"	"undefined"	"0"	"1"	"1"	"0"	"0"	"0"	"1"	"0"	"0"	"1"	"0"	"0"	"0"	"0"	"0"	"0"	"0"	"0"	"1"	"3"	"0"	"0"	"0"	"0"	"0"	"1"	"340"	"613"	"02/21/18 15:25:34"	"Executes Python code"	"yes"	""	"lineup_liveWOMEN_W.osexp"	"C:\Users\Laptop3\Desktop\Wednesday 2102"	"no"	"mono"	"no"	"24"	"no"	"black"	"no"	"Continue"	"yes"	"768"	"No"	"no"	"no"	"no"	"legacy"	"1"	"0"	"1"	"0"	"C:/Users/Laptop3/Desktop/Wednesday 2102/subject-71.csv"	"2"	"xpyriment"	"Jazzy James"	"3.1.4"	"0"	"1"	"1"	"6100"	"6100"	"2"	"legacy"	"1024"	"2"	"48000"	"-16"	"experiment"	"71"	"odd"	"legacy"	NA	NA	"70995"	NA	NA	NA	NA	NA	"1636"	"68217"	"1637"	NA	NA	"1641"	"1641"	"36862"	"36862"	"36843"	"62117"	"70996"	NA	NA	NA	NA	NA	"62116"	"lineup1"	"0"	"0"	"0"	"no"	"no"	"1366"
"83"	""	"undefined"	"undefined"	"undefined"	"undefined"	"white"	"no"	"xpyriment"	"legacy"	"legacy"	"0"	"no"	"relative"	"undefined"	"undefined"	"0"	"2"	"2"	"0"	"0"	"0"	"2"	"0"	"0"	"2"	"0"	"0"	"0"	"0"	"0"	"0"	"0"	"0"	"2"	"4"	"0"	"0"	"0"	"0"	"0"	"2"	"283"	"548"	"02/21/18 15:25:34"	"Executes Python code"	"yes"	""	"lineup_liveWOMEN_W.osexp"	"C:\Users\Laptop3\Desktop\Wednesday 2102"	"no"	"mono"	"no"	"24"	"no"	"black"	"no"	"Continue"	"yes"	"768"	"No"	"no"	"no"	"no"	"legacy"	"2"	"0"	"2"	"0"	"C:/Users/Laptop3/Desktop/Wednesday 2102/subject-71.csv"	"3"	"xpyriment"	"Jazzy James"	"3.1.4"	"0"	"1"	"1"	"30842"	"30842"	"2"	"legacy"	"1024"	"2"	"48000"	"-16"	"experiment"	"71"	"odd"	"legacy"	NA	NA	"104593"	NA	NA	NA	NA	NA	"1636"	"101945"	"1637"	NA	NA	"1641"	"1641"	"36862"	"36862"	"36843"	"71103"	"104593"	NA	NA	NA	NA	NA	"71102"	"lineup1"	"0"	"0"	"0"	"no"	"no"	"1366"
"84"	""	"undefined"	"undefined"	"undefined"	"undefined"	"white"	"no"	"xpyriment"	"legacy"	"legacy"	"0"	"no"	"relative"	"undefined"	"undefined"	"0"	"3"	"3"	"0"	"0"	"0"	"3"	"0"	"0"	"3"	"0"	"0"	"0"	"0"	"0"	"0"	"0"	"0"	"3"	"5"	"0"	"0"	"0"	"0"	"0"	"3"	"341"	"563"	"02/21/18 15:25:34"	"Executes Python code"	"yes"	""	"lineup_liveWOMEN_W.osexp"	"C:\Users\Laptop3\Desktop\Wednesday 2102"	"no"	"mono"	"no"	"24"	"no"	"black"	"no"	"Continue"	"yes"	"768"	"No"	"no"	"no"	"no"	"legacy"	"3"	"0"	"3"	"0"	"C:/Users/Laptop3/Desktop/Wednesday 2102/subject-71.csv"	"4"	"xpyriment"	"Jazzy James"	"3.1.4"	"0"	"1"	"1"	"9310"	"9310"	"2"	"legacy"	"1024"	"2"	"48000"	"-16"	"experiment"	"71"	"odd"	"legacy"	NA	NA	"116655"	NA	NA	NA	NA	NA	"1636"	"114008"	"1637"	NA	NA	"1641"	"1641"	"36862"	"36862"	"36843"	"104698"	"116655"	NA	NA	NA	NA	NA	"104697"	"lineup1"	"0"	"0"	"0"	"no"	"no"	"1366"
"85"	""	"undefined"	"undefined"	"undefined"	"undefined"	"white"	"no"	"xpyriment"	"legacy"	"legacy"	"0"	"no"	"relative"	"undefined"	"undefined"	"0"	"4"	"4"	"0"	"0"	"0"	"4"	"0"	"0"	"4"	"0"	"0"	"0"	"0"	"0"	"0"	"0"	"0"	"4"	"6"	"0"	"0"	"0"	"0"	"0"	"4"	"153"	"767"	"02/21/18 15:25:34"	"Executes Python code"	"yes"	""	"lineup_liveWOMEN_W.osexp"	"C:\Users\Laptop3\Desktop\Wednesday 2102"	"no"	"mono"	"no"	"24"	"no"	"black"	"no"	"Continue"	"yes"	"768"	"No"	"no"	"no"	"no"	"legacy"	"4"	"0"	"4"	"0"	"C:/Users/Laptop3/Desktop/Wednesday 2102/subject-71.csv"	"5"	"xpyriment"	"Jazzy James"	"3.1.4"	"0"	"1"	"1"	"12894"	"12894"	"2"	"legacy"	"1024"	"2"	"48000"	"-16"	"experiment"	"71"	"odd"	"legacy"	NA	NA	"132293"	NA	NA	NA	NA	NA	"1636"	"129656"	"1637"	NA	NA	"1641"	"1641"	"36862"	"36862"	"36843"	"116762"	"132293"	NA	NA	NA	NA	NA	"116759"	"lineup1"	"0"	"0"	"0"	"no"	"no"	"1366"
"86"	""	"undefined"	"undefined"	"undefined"	"undefined"	"white"	"no"	"xpyriment"	"legacy"	"legacy"	"0"	"no"	"relative"	"undefined"	"undefined"	"0"	"5"	"5"	"0"	"0"	"0"	"5"	"0"	"0"	"5"	"0"	"0"	"0"	"0"	"0"	"0"	"0"	"0"	"5"	"7"	"0"	"0"	"0"	"0"	"0"	"5"	"111"	"443"	"02/21/18 15:25:34"	"Executes Python code"	"yes"	""	"lineup_liveWOMEN_W.osexp"	"C:\Users\Laptop3\Desktop\Wednesday 2102"	"no"	"mono"	"no"	"24"	"no"	"black"	"no"	"Continue"	"yes"	"768"	"No"	"no"	"no"	"no"	"legacy"	"5"	"0"	"5"	"0"	"C:/Users/Laptop3/Desktop/Wednesday 2102/subject-71.csv"	"6"	"xpyriment"	"Jazzy James"	"3.1.4"	"0"	"1"	"1"	"8714"	"8714"	"2"	"legacy"	"1024"	"2"	"48000"	"-16"	"experiment"	"71"	"odd"	"legacy"	NA	NA	"144375"	NA	NA	NA	NA	NA	"1636"	"141113"	"1637"	NA	NA	"1641"	"1641"	"36862"	"36862"	"36843"	"132398"	"144375"	NA	NA	NA	NA	NA	"132397"	"lineup1"	"0"	"0"	"0"	"no"	"no"	"1366"
"87"	""	"undefined"	"undefined"	"undefined"	"undefined"	"white"	"no"	"xpyriment"	"legacy"	"legacy"	"0"	"no"	"relative"	"undefined"	"undefined"	"0"	"5"	"5"	"0"	"0"	"0"	"5"	"0"	"0"	"5"	"0"	"0"	"0"	"0"	"0"	"0"	"0"	"0"	"5"	"7"	"0"	"0"	"0"	"0"	"0"	"5"	"111"	"443"	"02/21/18 15:25:34"	"Executes Python code"	"yes"	""	"lineup_liveWOMEN_W.osexp"	"C:\Users\Laptop3\Desktop\Wednesday 2102"	"no"	"mono"	"no"	"24"	"no"	"black"	"no"	"Continue"	"yes"	"768"	"No"	"No"	"no"	"No"	"legacy"	"5"	"0"	"5"	"0"	"C:/Users/Laptop3/Desktop/Wednesday 2102/subject-71.csv"	"6"	"xpyriment"	"Jazzy James"	"3.1.4"	"0"	"1"	"1"	"8714"	"8714"	"2"	"legacy"	"1024"	"2"	"48000"	"-16"	"experiment"	"71"	"odd"	"legacy"	"148158"	NA	"144375"	"148157"	NA	"152216"	NA	NA	"1636"	"141113"	"1637"	NA	NA	"1641"	"1641"	"36862"	"36862"	"36843"	"132398"	"152216"	"144412"	NA	"149244"	NA	NA	"132397"	"lineup1"	"0"	"0"	"0"	"no"	"no"	"1366"
"88"	""	"undefined"	"undefined"	"undefined"	"undefined"	"white"	"no"	"xpyriment"	"legacy"	"legacy"	"0"	"no"	"relative"	"undefined"	"undefined"	"0"	"5"	"5"	"0"	"0"	"0"	"5"	"0"	"0"	"5"	"0"	"0"	"0"	"0"	"0"	"0"	"0"	"0"	"5"	"7"	"0"	"0"	"0"	"0"	"0"	"5"	"111"	"443"	"02/21/18 15:25:34"	"Executes Python code"	"yes"	""	"lineup_liveWOMEN_W.osexp"	"C:\Users\Laptop3\Desktop\Wednesday 2102"	"no"	"mono"	"no"	"24"	"no"	"black"	"no"	"Click to end"	"yes"	"768"	"No"	"No"	"no"	"No"	"legacy"	"5"	"0"	"5"	"0"	"C:/Users/Laptop3/Desktop/Wednesday 2102/subject-71.csv"	"6"	"xpyriment"	"Jazzy James"	"3.1.4"	"0"	"1"	"1"	"8714"	"8714"	"2"	"legacy"	"1024"	"2"	"48000"	"-16"	"experiment"	"71"	"odd"	"legacy"	"148158"	NA	"144375"	"148157"	NA	"152216"	NA	"152250"	"1636"	"141113"	"1637"	NA	NA	"1641"	"1641"	"36862"	"36862"	"36843"	"132398"	"153014"	"144412"	NA	"149244"	NA	NA	"132397"	"lineup1"	"0"	"0"	"0"	"no"	"no"	"1366"
"89"	""	"undefined"	"undefined"	"undefined"	"undefined"	"white"	"no"	"xpyriment"	"legacy"	"legacy"	"0"	"no"	"relative"	"undefined"	"undefined"	"0"	"0"	"0"	"0"	"0"	"0"	"0"	"0"	"0"	"0"	"0"	"0"	"0"	"0"	"0"	"0"	"0"	"0"	"0"	"2"	"0"	"0"	"0"	"0"	"0"	"0"	"867"	"550"	"02/21/18 15:39:55"	"Executes Python code"	"yes"	""	"lineup_liveWOMEN_W.osexp"	"C:\Users\Laptop3\Desktop\Wednesday 2102"	"no"	"mono"	"no"	"24"	"no"	"black"	"no"	"Continue"	"yes"	"768"	"No"	"no"	"no"	"no"	"legacy"	"0"	"0"	"0"	"0"	"C:/Users/Laptop3/Desktop/Wednesday 2102/subject-72.csv"	"1"	"xpyriment"	"Jazzy James"	"3.1.4"	"0"	"1"	"1"	"9485"	"9485"	"2"	"legacy"	"1024"	"2"	"48000"	"-16"	"experiment"	"72"	"even"	"legacy"	NA	NA	"41245"	NA	NA	NA	NA	NA	"1615"	"38236"	"1615"	NA	NA	"1619"	"1619"	"28685"	"28685"	"28666"	"28750"	"41245"	NA	NA	NA	NA	NA	"28749"	"lineup1"	"0"	"0"	"0"	"no"	"no"	"1366"
"90"	""	"undefined"	"undefined"	"undefined"	"undefined"	"white"	"no"	"xpyriment"	"legacy"	"legacy"	"0"	"no"	"relative"	"undefined"	"undefined"	"0"	"1"	"1"	"0"	"0"	"0"	"1"	"0"	"0"	"1"	"0"	"0"	"0"	"0"	"0"	"0"	"0"	"0"	"1"	"3"	"0"	"0"	"0"	"0"	"0"	"1"	"713"	"156"	"02/21/18 15:39:55"	"Executes Python code"	"yes"	""	"lineup_liveWOMEN_W.osexp"	"C:\Users\Laptop3\Desktop\Wednesday 2102"	"no"	"mono"	"no"	"24"	"no"	"black"	"no"	"Continue"	"yes"	"768"	"No"	"no"	"no"	"no"	"legacy"	"1"	"0"	"1"	"0"	"C:/Users/Laptop3/Desktop/Wednesday 2102/subject-72.csv"	"2"	"xpyriment"	"Jazzy James"	"3.1.4"	"0"	"1"	"1"	"7821"	"7821"	"2"	"legacy"	"1024"	"2"	"48000"	"-16"	"experiment"	"72"	"even"	"legacy"	NA	NA	"51687"	NA	NA	NA	NA	NA	"1615"	"49172"	"1615"	NA	NA	"1619"	"1619"	"28685"	"28685"	"28666"	"41351"	"51687"	NA	NA	NA	NA	NA	"41350"	"lineup1"	"0"	"0"	"0"	"no"	"no"	"1366"
"91"	""	"undefined"	"undefined"	"undefined"	"undefined"	"white"	"no"	"xpyriment"	"legacy"	"legacy"	"0"	"no"	"relative"	"undefined"	"undefined"	"0"	"2"	"2"	"0"	"0"	"0"	"2"	"0"	"0"	"2"	"0"	"0"	"0"	"0"	"0"	"0"	"0"	"0"	"2"	"4"	"0"	"0"	"0"	"0"	"0"	"2"	"633"	"525"	"02/21/18 15:39:55"	"Executes Python code"	"yes"	""	"lineup_liveWOMEN_W.osexp"	"C:\Users\Laptop3\Desktop\Wednesday 2102"	"no"	"mono"	"no"	"24"	"no"	"black"	"no"	"Continue"	"yes"	"768"	"No"	"no"	"no"	"no"	"legacy"	"2"	"0"	"2"	"0"	"C:/Users/Laptop3/Desktop/Wednesday 2102/subject-72.csv"	"3"	"xpyriment"	"Jazzy James"	"3.1.4"	"0"	"1"	"1"	"9539"	"9539"	"2"	"legacy"	"1024"	"2"	"48000"	"-16"	"experiment"	"72"	"even"	"legacy"	NA	NA	"64338"	NA	NA	NA	NA	NA	"1615"	"61331"	"1615"	NA	NA	"1619"	"1619"	"28685"	"28685"	"28666"	"51792"	"64338"	NA	NA	NA	NA	NA	"51791"	"lineup1"	"0"	"0"	"0"	"no"	"no"	"1366"
"92"	""	"undefined"	"undefined"	"undefined"	"undefined"	"white"	"no"	"xpyriment"	"legacy"	"legacy"	"0"	"no"	"relative"	"undefined"	"undefined"	"0"	"3"	"3"	"0"	"0"	"0"	"3"	"0"	"0"	"3"	"0"	"0"	"0"	"0"	"0"	"0"	"0"	"0"	"3"	"5"	"0"	"0"	"0"	"0"	"0"	"3"	"559"	"556"	"02/21/18 15:39:55"	"Executes Python code"	"yes"	""	"lineup_liveWOMEN_W.osexp"	"C:\Users\Laptop3\Desktop\Wednesday 2102"	"no"	"mono"	"no"	"24"	"no"	"black"	"no"	"Continue"	"yes"	"768"	"No"	"no"	"no"	"no"	"legacy"	"3"	"0"	"3"	"0"	"C:/Users/Laptop3/Desktop/Wednesday 2102/subject-72.csv"	"4"	"xpyriment"	"Jazzy James"	"3.1.4"	"0"	"1"	"1"	"6943"	"6943"	"2"	"legacy"	"1024"	"2"	"48000"	"-16"	"experiment"	"72"	"even"	"legacy"	NA	NA	"73640"	NA	NA	NA	NA	NA	"1615"	"71388"	"1615"	NA	NA	"1619"	"1619"	"28685"	"28685"	"28666"	"64444"	"73640"	NA	NA	NA	NA	NA	"64443"	"lineup1"	"0"	"0"	"0"	"no"	"no"	"1366"
"93"	""	"undefined"	"undefined"	"undefined"	"undefined"	"white"	"no"	"xpyriment"	"legacy"	"legacy"	"0"	"no"	"relative"	"undefined"	"undefined"	"0"	"4"	"4"	"0"	"0"	"0"	"4"	"0"	"0"	"4"	"0"	"0"	"0"	"0"	"0"	"0"	"0"	"0"	"4"	"6"	"0"	"0"	"0"	"0"	"0"	"4"	"560"	"573"	"02/21/18 15:39:55"	"Executes Python code"	"yes"	""	"lineup_liveWOMEN_W.osexp"	"C:\Users\Laptop3\Desktop\Wednesday 2102"	"no"	"mono"	"no"	"24"	"no"	"black"	"no"	"Continue"	"yes"	"768"	"No"	"no"	"no"	"no"	"legacy"	"4"	"0"	"4"	"0"	"C:/Users/Laptop3/Desktop/Wednesday 2102/subject-72.csv"	"5"	"xpyriment"	"Jazzy James"	"3.1.4"	"0"	"1"	"1"	"4868"	"4868"	"2"	"legacy"	"1024"	"2"	"48000"	"-16"	"experiment"	"72"	"even"	"legacy"	NA	NA	"80986"	NA	NA	NA	NA	NA	"1615"	"78611"	"1615"	NA	NA	"1619"	"1619"	"28685"	"28685"	"28666"	"73743"	"80987"	NA	NA	NA	NA	NA	"73741"	"lineup1"	"0"	"0"	"0"	"no"	"no"	"1366"
"94"	""	"undefined"	"undefined"	"undefined"	"undefined"	"white"	"no"	"xpyriment"	"legacy"	"legacy"	"0"	"no"	"relative"	"undefined"	"undefined"	"0"	"5"	"5"	"0"	"0"	"0"	"5"	"0"	"0"	"5"	"0"	"0"	"0"	"0"	"0"	"0"	"0"	"0"	"5"	"7"	"0"	"0"	"0"	"0"	"0"	"5"	"554"	"578"	"02/21/18 15:39:55"	"Executes Python code"	"yes"	""	"lineup_liveWOMEN_W.osexp"	"C:\Users\Laptop3\Desktop\Wednesday 2102"	"no"	"mono"	"no"	"24"	"no"	"black"	"no"	"Continue"	"yes"	"768"	"No"	"no"	"no"	"no"	"legacy"	"5"	"0"	"5"	"0"	"C:/Users/Laptop3/Desktop/Wednesday 2102/subject-72.csv"	"6"	"xpyriment"	"Jazzy James"	"3.1.4"	"0"	"1"	"1"	"2415"	"2415"	"2"	"legacy"	"1024"	"2"	"48000"	"-16"	"experiment"	"72"	"even"	"legacy"	NA	NA	"91796"	NA	NA	NA	NA	NA	"1615"	"83507"	"1615"	NA	NA	"1619"	"1619"	"28685"	"28685"	"28666"	"81091"	"91796"	NA	NA	NA	NA	NA	"81090"	"lineup1"	"0"	"0"	"0"	"no"	"no"	"1366"
"95"	""	"undefined"	"undefined"	"undefined"	"undefined"	"white"	"no"	"xpyriment"	"legacy"	"legacy"	"0"	"no"	"relative"	"undefined"	"undefined"	"0"	"5"	"5"	"0"	"0"	"0"	"5"	"0"	"0"	"5"	"0"	"0"	"0"	"0"	"0"	"0"	"0"	"0"	"5"	"7"	"0"	"0"	"0"	"0"	"0"	"5"	"554"	"578"	"02/21/18 15:39:55"	"Executes Python code"	"yes"	""	"lineup_liveWOMEN_W.osexp"	"C:\Users\Laptop3\Desktop\Wednesday 2102"	"no"	"mono"	"no"	"24"	"no"	"black"	"no"	"Continue"	"yes"	"768"	"No"	"No"	"no"	"No"	"legacy"	"5"	"0"	"5"	"0"	"C:/Users/Laptop3/Desktop/Wednesday 2102/subject-72.csv"	"6"	"xpyriment"	"Jazzy James"	"3.1.4"	"0"	"1"	"1"	"2415"	"2415"	"2"	"legacy"	"1024"	"2"	"48000"	"-16"	"experiment"	"72"	"even"	"legacy"	"94294"	NA	"91796"	"94293"	NA	"99131"	NA	NA	"1615"	"83507"	"1615"	NA	NA	"1619"	"1619"	"28685"	"28685"	"28666"	"81091"	"99131"	"91832"	NA	"96335"	NA	NA	"81090"	"lineup1"	"0"	"0"	"0"	"no"	"no"	"1366"
"96"	""	"undefined"	"undefined"	"undefined"	"undefined"	"white"	"no"	"xpyriment"	"legacy"	"legacy"	"0"	"no"	"relative"	"undefined"	"undefined"	"0"	"5"	"5"	"0"	"0"	"0"	"5"	"0"	"0"	"5"	"0"	"0"	"0"	"0"	"0"	"0"	"0"	"0"	"5"	"7"	"0"	"0"	"0"	"0"	"0"	"5"	"554"	"578"	"02/21/18 15:39:55"	"Executes Python code"	"yes"	""	"lineup_liveWOMEN_W.osexp"	"C:\Users\Laptop3\Desktop\Wednesday 2102"	"no"	"mono"	"no"	"24"	"no"	"black"	"no"	"Click to end"	"yes"	"768"	"No"	"No"	"no"	"No"	"legacy"	"5"	"0"	"5"	"0"	"C:/Users/Laptop3/Desktop/Wednesday 2102/subject-72.csv"	"6"	"xpyriment"	"Jazzy James"	"3.1.4"	"0"	"1"	"1"	"2415"	"2415"	"2"	"legacy"	"1024"	"2"	"48000"	"-16"	"experiment"	"72"	"even"	"legacy"	"94294"	NA	"91796"	"94293"	NA	"99131"	NA	"99166"	"1615"	"83507"	"1615"	NA	NA	"1619"	"1619"	"28685"	"28685"	"28666"	"81091"	"100802"	"91832"	NA	"96335"	NA	NA	"81090"	"lineup1"	"0"	"0"	"0"	"no"	"no"	"1366"
"97"	""	"undefined"	"undefined"	"undefined"	"undefined"	"white"	"no"	"xpyriment"	"legacy"	"legacy"	"0"	"no"	"relative"	"undefined"	"undefined"	"0"	"0"	"0"	"0"	"0"	"0"	"0"	"0"	"0"	"0"	"0"	"0"	"0"	"0"	"0"	"0"	"0"	"0"	"0"	"2"	"0"	"0"	"0"	"0"	"0"	"0"	"406"	"717"	"02/21/18 15:36:14"	"Executes Python code"	"yes"	""	"lineup_liveWOMEN_W.osexp"	"C:\Users\Laptop3\Desktop\Wednesday 2102"	"no"	"mono"	"no"	"24"	"no"	"black"	"no"	"Continue"	"yes"	"768"	"No"	"no"	"no"	"no"	"legacy"	"0"	"0"	"0"	"0"	"C:/Users/Laptop3/Desktop/Wednesday 2102/subject-90.csv"	"1"	"xpyriment"	"Jazzy James"	"3.1.4"	"0"	"1"	"1"	"29452"	"29452"	"2"	"legacy"	"1024"	"2"	"48000"	"-16"	"experiment"	"90"	"even"	"legacy"	NA	NA	"69371"	NA	NA	NA	NA	NA	"1647"	"64472"	"1647"	NA	NA	"1652"	"1652"	"34952"	"34952"	"34933"	"35019"	"69371"	NA	NA	NA	NA	NA	"35018"	"lineup1"	"0"	"0"	"0"	"no"	"no"	"1366"
"98"	""	"undefined"	"undefined"	"undefined"	"undefined"	"white"	"no"	"xpyriment"	"legacy"	"legacy"	"0"	"70"	"relative"	"undefined"	"undefined"	"0"	"1"	"1"	"0"	"0"	"0"	"1"	"0"	"0"	"1"	"0"	"0"	"0"	"0"	"0"	"0"	"0"	"0"	"1"	"3"	"0"	"0"	"0"	"0"	"0"	"1"	"88"	"492"	"02/21/18 15:36:14"	"Executes Python code"	"yes"	""	"lineup_liveWOMEN_W.osexp"	"C:\Users\Laptop3\Desktop\Wednesday 2102"	"no"	"mono"	"no"	"24"	"no"	"black"	"no"	"Continue"	"yes"	"768"	"Yes"	"no"	"no"	"no"	"legacy"	"1"	"0"	"1"	"0"	"C:/Users/Laptop3/Desktop/Wednesday 2102/subject-90.csv"	"2"	"xpyriment"	"Jazzy James"	"3.1.4"	"0"	"1"	"1"	"30368"	"30368"	"2"	"legacy"	"1024"	"2"	"48000"	"-16"	"experiment"	"90"	"even"	"legacy"	NA	"112728"	"105260"	NA	NA	NA	"105260"	NA	"1647"	"99847"	"1647"	NA	NA	"1652"	"1652"	"34952"	"34952"	"34933"	"69479"	"112728"	NA	NA	NA	NA	NA	"69478"	"lineup1"	"0"	"0"	"0"	"no"	"no"	"1366"
"99"	""	"undefined"	"undefined"	"undefined"	"undefined"	"white"	"no"	"xpyriment"	"legacy"	"legacy"	"0"	"no"	"relative"	"undefined"	"undefined"	"0"	"2"	"2"	"0"	"0"	"0"	"2"	"0"	"0"	"2"	"0"	"0"	"0"	"0"	"0"	"0"	"0"	"0"	"2"	"4"	"0"	"0"	"0"	"0"	"0"	"2"	"1071"	"596"	"02/21/18 15:36:14"	"Executes Python code"	"yes"	""	"lineup_liveWOMEN_W.osexp"	"C:\Users\Laptop3\Desktop\Wednesday 2102"	"no"	"mono"	"no"	"24"	"no"	"black"	"no"	"Continue"	"yes"	"768"	"No"	"no"	"no"	"no"	"legacy"	"2"	"0"	"2"	"0"	"C:/Users/Laptop3/Desktop/Wednesday 2102/subject-90.csv"	"3"	"xpyriment"	"Jazzy James"	"3.1.4"	"0"	"1"	"1"	"5856"	"5856"	"2"	"legacy"	"1024"	"2"	"48000"	"-16"	"experiment"	"90"	"even"	"legacy"	NA	"112728"	"121453"	NA	NA	NA	"105260"	NA	"1647"	"118687"	"1647"	NA	NA	"1652"	"1652"	"34952"	"34952"	"34933"	"112831"	"121453"	NA	NA	NA	NA	NA	"112830"	"lineup1"	"0"	"0"	"0"	"no"	"no"	"1366"
"100"	""	"undefined"	"undefined"	"undefined"	"undefined"	"white"	"no"	"xpyriment"	"legacy"	"legacy"	"0"	"no"	"relative"	"undefined"	"undefined"	"0"	"3"	"3"	"0"	"0"	"0"	"3"	"0"	"0"	"3"	"0"	"0"	"0"	"0"	"0"	"0"	"0"	"0"	"3"	"5"	"0"	"0"	"0"	"0"	"0"	"3"	"155"	"540"	"02/21/18 15:36:14"	"Executes Python code"	"yes"	""	"lineup_liveWOMEN_W.osexp"	"C:\Users\Laptop3\Desktop\Wednesday 2102"	"no"	"mono"	"no"	"24"	"no"	"black"	"no"	"Continue"	"yes"	"768"	"No"	"no"	"no"	"no"	"legacy"	"3"	"0"	"3"	"0"	"C:/Users/Laptop3/Desktop/Wednesday 2102/subject-90.csv"	"4"	"xpyriment"	"Jazzy James"	"3.1.4"	"0"	"1"	"1"	"2512"	"2512"	"2"	"legacy"	"1024"	"2"	"48000"	"-16"	"experiment"	"90"	"even"	"legacy"	NA	"112728"	"133659"	NA	NA	NA	"105260"	NA	"1647"	"124071"	"1647"	NA	NA	"1652"	"1652"	"34952"	"34952"	"34933"	"121558"	"133659"	NA	NA	NA	NA	NA	"121557"	"lineup1"	"0"	"0"	"0"	"no"	"no"	"1366"
"101"	""	"undefined"	"undefined"	"undefined"	"undefined"	"white"	"no"	"xpyriment"	"legacy"	"legacy"	"0"	"no"	"relative"	"undefined"	"undefined"	"0"	"4"	"4"	"0"	"0"	"0"	"4"	"0"	"0"	"4"	"0"	"0"	"0"	"0"	"0"	"0"	"0"	"0"	"4"	"6"	"0"	"0"	"0"	"0"	"0"	"4"	"219"	"767"	"02/21/18 15:36:14"	"Executes Python code"	"yes"	""	"lineup_liveWOMEN_W.osexp"	"C:\Users\Laptop3\Desktop\Wednesday 2102"	"no"	"mono"	"no"	"24"	"no"	"black"	"no"	"Continue"	"yes"	"768"	"Not sure"	"no"	"no"	"no"	"legacy"	"4"	"0"	"4"	"0"	"C:/Users/Laptop3/Desktop/Wednesday 2102/subject-90.csv"	"5"	"xpyriment"	"Jazzy James"	"3.1.4"	"0"	"1"	"1"	"2037"	"2037"	"2"	"legacy"	"1024"	"2"	"48000"	"-16"	"experiment"	"90"	"even"	"legacy"	NA	"112728"	"144087"	NA	NA	NA	"105260"	NA	"1647"	"135799"	"1647"	NA	NA	"1652"	"1652"	"34952"	"34952"	"34933"	"133762"	"144087"	NA	NA	NA	NA	NA	"133761"	"lineup1"	"0"	"0"	"0"	"no"	"no"	"1366"
"102"	""	"undefined"	"undefined"	"undefined"	"undefined"	"white"	"no"	"xpyriment"	"legacy"	"legacy"	"0"	"no"	"relative"	"undefined"	"undefined"	"0"	"5"	"5"	"0"	"0"	"0"	"5"	"0"	"0"	"5"	"0"	"0"	"0"	"0"	"0"	"0"	"0"	"0"	"5"	"7"	"0"	"0"	"0"	"0"	"0"	"5"	"294"	"552"	"02/21/18 15:36:14"	"Executes Python code"	"yes"	""	"lineup_liveWOMEN_W.osexp"	"C:\Users\Laptop3\Desktop\Wednesday 2102"	"no"	"mono"	"no"	"24"	"no"	"black"	"no"	"Continue"	"yes"	"768"	"Not sure"	"no"	"no"	"no"	"legacy"	"5"	"0"	"5"	"0"	"C:/Users/Laptop3/Desktop/Wednesday 2102/subject-90.csv"	"6"	"xpyriment"	"Jazzy James"	"3.1.4"	"0"	"1"	"1"	"2536"	"2536"	"2"	"legacy"	"1024"	"2"	"48000"	"-16"	"experiment"	"90"	"even"	"legacy"	NA	"112728"	"159643"	NA	NA	NA	"105260"	NA	"1647"	"146726"	"1647"	NA	NA	"1652"	"1652"	"34952"	"34952"	"34933"	"144190"	"159643"	NA	NA	NA	NA	NA	"144188"	"lineup1"	"0"	"0"	"0"	"no"	"no"	"1366"
"103"	""	"undefined"	"undefined"	"undefined"	"undefined"	"white"	"no"	"xpyriment"	"legacy"	"legacy"	"0"	"no"	"relative"	"undefined"	"undefined"	"0"	"5"	"5"	"0"	"0"	"0"	"5"	"0"	"0"	"5"	"0"	"0"	"0"	"0"	"0"	"0"	"0"	"0"	"5"	"7"	"0"	"0"	"0"	"0"	"0"	"5"	"294"	"552"	"02/21/18 15:36:14"	"Executes Python code"	"yes"	""	"lineup_liveWOMEN_W.osexp"	"C:\Users\Laptop3\Desktop\Wednesday 2102"	"no"	"mono"	"no"	"24"	"no"	"black"	"no"	"Continue"	"yes"	"768"	"Not sure"	"Yes"	"One"	"No"	"legacy"	"5"	"0"	"5"	"0"	"C:/Users/Laptop3/Desktop/Wednesday 2102/subject-90.csv"	"6"	"xpyriment"	"Jazzy James"	"3.1.4"	"0"	"1"	"1"	"2536"	"2536"	"2"	"legacy"	"1024"	"2"	"48000"	"-16"	"experiment"	"90"	"even"	"legacy"	"167961"	"112728"	"159643"	"165253"	"167961"	"173319"	"105260"	NA	"1647"	"146726"	"1647"	NA	NA	"1652"	"1652"	"34952"	"34952"	"34933"	"144190"	"173319"	"159679"	"165253"	"169296"	NA	NA	"144188"	"lineup1"	"0"	"0"	"0"	"no"	"no"	"1366"
"104"	""	"undefined"	"undefined"	"undefined"	"undefined"	"white"	"no"	"xpyriment"	"legacy"	"legacy"	"0"	"no"	"relative"	"undefined"	"undefined"	"0"	"5"	"5"	"0"	"0"	"0"	"5"	"0"	"0"	"5"	"0"	"0"	"0"	"0"	"0"	"0"	"0"	"0"	"5"	"7"	"0"	"0"	"0"	"0"	"0"	"5"	"294"	"552"	"02/21/18 15:36:14"	"Executes Python code"	"yes"	""	"lineup_liveWOMEN_W.osexp"	"C:\Users\Laptop3\Desktop\Wednesday 2102"	"no"	"mono"	"no"	"24"	"no"	"black"	"no"	"Click to end"	"yes"	"768"	"Not sure"	"Yes"	"One"	"No"	"legacy"	"5"	"0"	"5"	"0"	"C:/Users/Laptop3/Desktop/Wednesday 2102/subject-90.csv"	"6"	"xpyriment"	"Jazzy James"	"3.1.4"	"0"	"1"	"1"	"2536"	"2536"	"2"	"legacy"	"1024"	"2"	"48000"	"-16"	"experiment"	"90"	"even"	"legacy"	"167961"	"112728"	"159643"	"165253"	"167961"	"173319"	"105260"	"173354"	"1647"	"146726"	"1647"	NA	NA	"1652"	"1652"	"34952"	"34952"	"34933"	"144190"	"207961"	"159679"	"165253"	"169296"	NA	NA	"144188"	"lineup1"	"0"	"0"	"0"	"no"	"no"	"1366"
