"_prepare"	"acc"	"accuracy"	"average_response_time"	"avg_rt"	"background"	"bidi"	"canvas_backend"	"clock_backend"	"color_backend"	"compensation"	"confidence_immediate"	"coordinates"	"correct"	"correct_live_view"	"count_admin_check"	"count_check_confidence_imm"	"count_check_identification"	"count_check_made_identification"	"count_check_multiple_identification"	"count_check_proceeding_identification"	"count_confidence_imm"	"count_end_of_experiment"	"count_experiment"	"count_identification_task"	"count_instructions"	"count_instructions_after_multiple"	"count_instructions_after_proceed_identification"	"count_instructions_before_view"	"count_instructions_sequence"	"count_lineup_loop"	"count_lineup_sequence"	"count_live_lineup"	"count_live_view"	"count_logger"	"count_made_identification"	"count_multiple_identification"	"count_proceed_identification"	"count_repeat_lineup_sequence_identification"	"count_repeat_lineup_sequence_multiple"	"count_setting_sequence"	"cursor_x"	"cursor_y"	"datetime"	"description"	"disable_garbage_collection"	"empty_column"	"experiment_file"	"experiment_path"	"font_bold"	"font_family"	"font_italic"	"font_size"	"font_underline"	"foreground"	"form_clicks"	"form_response"	"fullscreen"	"height"	"identification"	"identification_made"	"identification_multiple"	"identification_proceed"	"keyboard_backend"	"live_row"	"live_row_instructions"	"live_row_lineup_loop"	"live_row_live_lineup"	"logfile"	"member"	"mouse_backend"	"opensesame_codename"	"opensesame_version"	"repeat_cycle"	"response"	"response_live_view"	"response_time"	"response_time_live_view"	"round_decimals"	"sampler_backend"	"sound_buf_size"	"sound_channels"	"sound_freq"	"sound_sample_size"	"start"	"subject_nr"	"subject_parity"	"synth_backend"	"time_admin_check"	"time_check_confidence_imm"	"time_check_identification"	"time_check_made_identification"	"time_check_multiple_identification"	"time_check_proceeding_identification"	"time_confidence_imm"	"time_end_of_experiment"	"time_experiment"	"time_identification_task"	"time_instructions"	"time_instructions_after_multiple"	"time_instructions_after_proceed_identification"	"time_instructions_before_view"	"time_instructions_sequence"	"time_lineup_loop"	"time_lineup_sequence"	"time_live_lineup"	"time_live_view"	"time_logger"	"time_made_identification"	"time_multiple_identification"	"time_proceed_identification"	"time_repeat_lineup_sequence_identification"	"time_repeat_lineup_sequence_multiple"	"time_setting_sequence"	"title"	"total_correct"	"total_response_time"	"total_responses"	"transparent_variables"	"uniform_coordinates"	"width"
"1"	""	"undefined"	"undefined"	"undefined"	"undefined"	"white"	"no"	"xpyriment"	"legacy"	"legacy"	"0"	"no"	"relative"	"undefined"	"undefined"	"0"	"0"	"0"	"0"	"0"	"0"	"0"	"0"	"0"	"0"	"0"	"0"	"0"	"0"	"0"	"0"	"0"	"0"	"0"	"2"	"0"	"0"	"0"	"0"	"0"	"0"	"91"	"141"	"02/21/18 14:51:08"	"Executes Python code"	"yes"	""	"lineup_liveMEN_W.osexp"	"C:\Users\Laptop10\Desktop\Wednesday 2102"	"no"	"mono"	"no"	"24"	"no"	"black"	"no"	"Continue"	"yes"	"768"	"No"	"no"	"no"	"no"	"legacy"	"0"	"0"	"0"	"0"	"C:/Users/Laptop10/Desktop/Wednesday 2102/subject-61.csv"	"1"	"xpyriment"	"Jazzy James"	"3.1.4"	"0"	"1"	"1"	"9648"	"9648"	"2"	"legacy"	"1024"	"2"	"48000"	"-16"	"experiment"	"61"	"odd"	"legacy"	NA	NA	"45319"	NA	NA	NA	NA	NA	"1562"	"40748"	"1562"	NA	NA	"1566"	"1566"	"31007"	"31007"	"30989"	"31100"	"45319"	NA	NA	NA	NA	NA	"31100"	"lineup1"	"0"	"0"	"0"	"no"	"no"	"1366"
"2"	""	"undefined"	"undefined"	"undefined"	"undefined"	"white"	"no"	"xpyriment"	"legacy"	"legacy"	"0"	"no"	"relative"	"undefined"	"undefined"	"0"	"1"	"1"	"0"	"0"	"0"	"1"	"0"	"0"	"1"	"0"	"0"	"0"	"0"	"0"	"0"	"0"	"0"	"1"	"3"	"0"	"0"	"0"	"0"	"0"	"1"	"712"	"432"	"02/21/18 14:51:08"	"Executes Python code"	"yes"	""	"lineup_liveMEN_W.osexp"	"C:\Users\Laptop10\Desktop\Wednesday 2102"	"no"	"mono"	"no"	"24"	"no"	"black"	"no"	"Continue"	"yes"	"768"	"No"	"no"	"no"	"no"	"legacy"	"1"	"0"	"1"	"0"	"C:/Users/Laptop10/Desktop/Wednesday 2102/subject-61.csv"	"2"	"xpyriment"	"Jazzy James"	"3.1.4"	"0"	"1"	"1"	"2087"	"2087"	"2"	"legacy"	"1024"	"2"	"48000"	"-16"	"experiment"	"61"	"odd"	"legacy"	NA	NA	"50437"	NA	NA	NA	NA	NA	"1562"	"47541"	"1562"	NA	NA	"1566"	"1566"	"31007"	"31007"	"30989"	"45454"	"50437"	NA	NA	NA	NA	NA	"45453"	"lineup1"	"0"	"0"	"0"	"no"	"no"	"1366"
"3"	""	"undefined"	"undefined"	"undefined"	"undefined"	"white"	"no"	"xpyriment"	"legacy"	"legacy"	"0"	"no"	"relative"	"undefined"	"undefined"	"0"	"2"	"2"	"0"	"0"	"0"	"2"	"0"	"0"	"2"	"0"	"0"	"0"	"0"	"0"	"0"	"0"	"0"	"2"	"4"	"0"	"0"	"0"	"0"	"0"	"2"	"741"	"168"	"02/21/18 14:51:08"	"Executes Python code"	"yes"	""	"lineup_liveMEN_W.osexp"	"C:\Users\Laptop10\Desktop\Wednesday 2102"	"no"	"mono"	"no"	"24"	"no"	"black"	"no"	"Continue"	"yes"	"768"	"No"	"no"	"no"	"no"	"legacy"	"2"	"0"	"2"	"0"	"C:/Users/Laptop10/Desktop/Wednesday 2102/subject-61.csv"	"3"	"xpyriment"	"Jazzy James"	"3.1.4"	"0"	"1"	"1"	"7132"	"7132"	"2"	"legacy"	"1024"	"2"	"48000"	"-16"	"experiment"	"61"	"odd"	"legacy"	NA	NA	"64470"	NA	NA	NA	NA	NA	"1562"	"57732"	"1562"	NA	NA	"1566"	"1566"	"31007"	"31007"	"30989"	"50600"	"64471"	NA	NA	NA	NA	NA	"50599"	"lineup1"	"0"	"0"	"0"	"no"	"no"	"1366"
"4"	""	"undefined"	"undefined"	"undefined"	"undefined"	"white"	"no"	"xpyriment"	"legacy"	"legacy"	"0"	"60"	"relative"	"undefined"	"undefined"	"0"	"3"	"3"	"0"	"0"	"0"	"3"	"0"	"0"	"3"	"0"	"0"	"0"	"0"	"0"	"0"	"0"	"0"	"3"	"5"	"0"	"0"	"0"	"0"	"0"	"3"	"486"	"691"	"02/21/18 14:51:08"	"Executes Python code"	"yes"	""	"lineup_liveMEN_W.osexp"	"C:\Users\Laptop10\Desktop\Wednesday 2102"	"no"	"mono"	"no"	"24"	"no"	"black"	"no"	"Continue"	"yes"	"768"	"Yes"	"no"	"no"	"no"	"legacy"	"3"	"0"	"3"	"0"	"C:/Users/Laptop10/Desktop/Wednesday 2102/subject-61.csv"	"4"	"xpyriment"	"Jazzy James"	"3.1.4"	"0"	"1"	"1"	"3468"	"3468"	"2"	"legacy"	"1024"	"2"	"48000"	"-16"	"experiment"	"61"	"odd"	"legacy"	NA	"76024"	"70493"	NA	NA	NA	"70493"	NA	"1562"	"68069"	"1562"	NA	NA	"1566"	"1566"	"31007"	"31007"	"30989"	"64600"	"76024"	NA	NA	NA	NA	NA	"64599"	"lineup1"	"0"	"0"	"0"	"no"	"no"	"1366"
"5"	""	"undefined"	"undefined"	"undefined"	"undefined"	"white"	"no"	"xpyriment"	"legacy"	"legacy"	"0"	"no"	"relative"	"undefined"	"undefined"	"0"	"4"	"4"	"0"	"0"	"0"	"4"	"0"	"0"	"4"	"0"	"0"	"0"	"0"	"0"	"0"	"0"	"0"	"4"	"6"	"0"	"0"	"0"	"0"	"0"	"4"	"514"	"412"	"02/21/18 14:51:08"	"Executes Python code"	"yes"	""	"lineup_liveMEN_W.osexp"	"C:\Users\Laptop10\Desktop\Wednesday 2102"	"no"	"mono"	"no"	"24"	"no"	"black"	"no"	"Continue"	"yes"	"768"	"No"	"no"	"no"	"no"	"legacy"	"4"	"0"	"4"	"0"	"C:/Users/Laptop10/Desktop/Wednesday 2102/subject-61.csv"	"5"	"xpyriment"	"Jazzy James"	"3.1.4"	"0"	"1"	"1"	"4125"	"4125"	"2"	"legacy"	"1024"	"2"	"48000"	"-16"	"experiment"	"61"	"odd"	"legacy"	NA	"76024"	"83009"	NA	NA	NA	"70493"	NA	"1562"	"80284"	"1562"	NA	NA	"1566"	"1566"	"31007"	"31007"	"30989"	"76158"	"83009"	NA	NA	NA	NA	NA	"76157"	"lineup1"	"0"	"0"	"0"	"no"	"no"	"1366"
"6"	""	"undefined"	"undefined"	"undefined"	"undefined"	"white"	"no"	"xpyriment"	"legacy"	"legacy"	"0"	"no"	"relative"	"undefined"	"undefined"	"0"	"5"	"5"	"0"	"0"	"0"	"5"	"0"	"0"	"5"	"0"	"0"	"0"	"0"	"0"	"0"	"0"	"0"	"5"	"7"	"0"	"0"	"0"	"0"	"0"	"5"	"452"	"334"	"02/21/18 14:51:08"	"Executes Python code"	"yes"	""	"lineup_liveMEN_W.osexp"	"C:\Users\Laptop10\Desktop\Wednesday 2102"	"no"	"mono"	"no"	"24"	"no"	"black"	"no"	"Continue"	"yes"	"768"	"No"	"no"	"no"	"no"	"legacy"	"5"	"0"	"5"	"0"	"C:/Users/Laptop10/Desktop/Wednesday 2102/subject-61.csv"	"6"	"xpyriment"	"Jazzy James"	"3.1.4"	"0"	"1"	"1"	"3871"	"3871"	"2"	"legacy"	"1024"	"2"	"48000"	"-16"	"experiment"	"61"	"odd"	"legacy"	NA	"76024"	"90681"	NA	NA	NA	"70493"	NA	"1562"	"87012"	"1562"	NA	NA	"1566"	"1566"	"31007"	"31007"	"30989"	"83141"	"90682"	NA	NA	NA	NA	NA	"83140"	"lineup1"	"0"	"0"	"0"	"no"	"no"	"1366"
"7"	""	"undefined"	"undefined"	"undefined"	"undefined"	"white"	"no"	"xpyriment"	"legacy"	"legacy"	"0"	"no"	"relative"	"undefined"	"undefined"	"0"	"5"	"5"	"0"	"0"	"0"	"5"	"0"	"0"	"5"	"0"	"0"	"0"	"0"	"0"	"0"	"0"	"0"	"5"	"7"	"0"	"0"	"0"	"0"	"0"	"5"	"452"	"334"	"02/21/18 14:51:08"	"Executes Python code"	"yes"	""	"lineup_liveMEN_W.osexp"	"C:\Users\Laptop10\Desktop\Wednesday 2102"	"no"	"mono"	"no"	"24"	"no"	"black"	"no"	"Continue"	"yes"	"768"	"No"	"Yes"	"One"	"No"	"legacy"	"5"	"0"	"5"	"0"	"C:/Users/Laptop10/Desktop/Wednesday 2102/subject-61.csv"	"6"	"xpyriment"	"Jazzy James"	"3.1.4"	"0"	"1"	"1"	"3871"	"3871"	"2"	"legacy"	"1024"	"2"	"48000"	"-16"	"experiment"	"61"	"odd"	"legacy"	"97409"	"76024"	"90681"	"94133"	"97409"	"128808"	"70493"	NA	"1562"	"87012"	"1562"	NA	NA	"1566"	"1566"	"31007"	"31007"	"30989"	"83141"	"128808"	"90717"	"94134"	"99784"	NA	NA	"83140"	"lineup1"	"0"	"0"	"0"	"no"	"no"	"1366"
"8"	""	"undefined"	"undefined"	"undefined"	"undefined"	"white"	"no"	"xpyriment"	"legacy"	"legacy"	"0"	"no"	"relative"	"undefined"	"undefined"	"0"	"5"	"5"	"0"	"0"	"0"	"5"	"0"	"0"	"5"	"0"	"0"	"0"	"0"	"0"	"0"	"0"	"0"	"5"	"7"	"0"	"0"	"0"	"0"	"0"	"5"	"452"	"334"	"02/21/18 14:51:08"	"Executes Python code"	"yes"	""	"lineup_liveMEN_W.osexp"	"C:\Users\Laptop10\Desktop\Wednesday 2102"	"no"	"mono"	"no"	"24"	"no"	"black"	"no"	"Click to end"	"yes"	"768"	"No"	"Yes"	"One"	"No"	"legacy"	"5"	"0"	"5"	"0"	"C:/Users/Laptop10/Desktop/Wednesday 2102/subject-61.csv"	"6"	"xpyriment"	"Jazzy James"	"3.1.4"	"0"	"1"	"1"	"3871"	"3871"	"2"	"legacy"	"1024"	"2"	"48000"	"-16"	"experiment"	"61"	"odd"	"legacy"	"97409"	"76024"	"90681"	"94133"	"97409"	"128808"	"70493"	"128839"	"1562"	"87012"	"1562"	NA	NA	"1566"	"1566"	"31007"	"31007"	"30989"	"83141"	"131072"	"90717"	"94134"	"99784"	NA	NA	"83140"	"lineup1"	"0"	"0"	"0"	"no"	"no"	"1366"
"9"	""	"undefined"	"undefined"	"undefined"	"undefined"	"white"	"no"	"xpyriment"	"legacy"	"legacy"	"0"	"no"	"relative"	"undefined"	"undefined"	"0"	"0"	"0"	"0"	"0"	"0"	"0"	"0"	"0"	"0"	"0"	"0"	"0"	"0"	"0"	"0"	"0"	"0"	"0"	"2"	"0"	"0"	"0"	"0"	"0"	"0"	"153"	"356"	"02/21/18 14:44:00"	"Executes Python code"	"yes"	""	"lineup_liveMEN_W.osexp"	"C:\Users\Laptop10\Desktop\Wednesday 2102"	"no"	"mono"	"no"	"24"	"no"	"black"	"no"	"Continue"	"yes"	"768"	"No"	"no"	"no"	"no"	"legacy"	"0"	"0"	"0"	"0"	"C:/Users/Laptop10/Desktop/Wednesday 2102/subject-62.csv"	"1"	"xpyriment"	"Jazzy James"	"3.1.4"	"0"	"1"	"1"	"10993"	"10993"	"2"	"legacy"	"1024"	"2"	"48000"	"-16"	"experiment"	"62"	"even"	"legacy"	NA	NA	"62251"	NA	NA	NA	NA	NA	"1548"	"58005"	"1549"	NA	NA	"1553"	"1553"	"46915"	"46915"	"46897"	"47011"	"62251"	NA	NA	NA	NA	NA	"47010"	"lineup1"	"0"	"0"	"0"	"no"	"no"	"1366"
"10"	""	"undefined"	"undefined"	"undefined"	"undefined"	"white"	"no"	"xpyriment"	"legacy"	"legacy"	"0"	"no"	"relative"	"undefined"	"undefined"	"0"	"1"	"1"	"0"	"0"	"0"	"1"	"0"	"0"	"1"	"0"	"0"	"0"	"0"	"0"	"0"	"0"	"0"	"1"	"3"	"0"	"0"	"0"	"0"	"0"	"1"	"1345"	"762"	"02/21/18 14:44:00"	"Executes Python code"	"yes"	""	"lineup_liveMEN_W.osexp"	"C:\Users\Laptop10\Desktop\Wednesday 2102"	"no"	"mono"	"no"	"24"	"no"	"black"	"no"	"Continue"	"yes"	"768"	"No"	"no"	"no"	"no"	"legacy"	"1"	"0"	"1"	"0"	"C:/Users/Laptop10/Desktop/Wednesday 2102/subject-62.csv"	"2"	"xpyriment"	"Jazzy James"	"3.1.4"	"0"	"1"	"1"	"4011"	"4011"	"2"	"legacy"	"1024"	"2"	"48000"	"-16"	"experiment"	"62"	"even"	"legacy"	NA	NA	"70115"	NA	NA	NA	NA	NA	"1548"	"66397"	"1549"	NA	NA	"1553"	"1553"	"46915"	"46915"	"46897"	"62386"	"70116"	NA	NA	NA	NA	NA	"62385"	"lineup1"	"0"	"0"	"0"	"no"	"no"	"1366"
"11"	""	"undefined"	"undefined"	"undefined"	"undefined"	"white"	"no"	"xpyriment"	"legacy"	"legacy"	"0"	"no"	"relative"	"undefined"	"undefined"	"0"	"2"	"2"	"0"	"0"	"0"	"2"	"0"	"0"	"2"	"0"	"0"	"0"	"0"	"0"	"0"	"0"	"0"	"2"	"4"	"0"	"0"	"0"	"0"	"0"	"2"	"1177"	"239"	"02/21/18 14:44:00"	"Executes Python code"	"yes"	""	"lineup_liveMEN_W.osexp"	"C:\Users\Laptop10\Desktop\Wednesday 2102"	"no"	"mono"	"no"	"24"	"no"	"black"	"no"	"Continue"	"yes"	"768"	"Not sure"	"no"	"no"	"no"	"legacy"	"2"	"0"	"2"	"0"	"C:/Users/Laptop10/Desktop/Wednesday 2102/subject-62.csv"	"3"	"xpyriment"	"Jazzy James"	"3.1.4"	"0"	"1"	"1"	"6177"	"6177"	"2"	"legacy"	"1024"	"2"	"48000"	"-16"	"experiment"	"62"	"even"	"legacy"	NA	NA	"80426"	NA	NA	NA	NA	NA	"1548"	"76421"	"1549"	NA	NA	"1553"	"1553"	"46915"	"46915"	"46897"	"70243"	"80426"	NA	NA	NA	NA	NA	"70242"	"lineup1"	"0"	"0"	"0"	"no"	"no"	"1366"
"12"	""	"undefined"	"undefined"	"undefined"	"undefined"	"white"	"no"	"xpyriment"	"legacy"	"legacy"	"0"	"no"	"relative"	"undefined"	"undefined"	"0"	"3"	"3"	"0"	"0"	"0"	"3"	"0"	"0"	"3"	"0"	"0"	"0"	"0"	"0"	"0"	"0"	"0"	"3"	"5"	"0"	"0"	"0"	"0"	"0"	"3"	"1352"	"664"	"02/21/18 14:44:00"	"Executes Python code"	"yes"	""	"lineup_liveMEN_W.osexp"	"C:\Users\Laptop10\Desktop\Wednesday 2102"	"no"	"mono"	"no"	"24"	"no"	"black"	"no"	"Continue"	"yes"	"768"	"No"	"no"	"no"	"no"	"legacy"	"3"	"0"	"3"	"0"	"C:/Users/Laptop10/Desktop/Wednesday 2102/subject-62.csv"	"4"	"xpyriment"	"Jazzy James"	"3.1.4"	"0"	"1"	"1"	"4992"	"4992"	"2"	"legacy"	"1024"	"2"	"48000"	"-16"	"experiment"	"62"	"even"	"legacy"	NA	NA	"88949"	NA	NA	NA	NA	NA	"1548"	"85549"	"1549"	NA	NA	"1553"	"1553"	"46915"	"46915"	"46897"	"80557"	"88949"	NA	NA	NA	NA	NA	"80556"	"lineup1"	"0"	"0"	"0"	"no"	"no"	"1366"
"13"	""	"undefined"	"undefined"	"undefined"	"undefined"	"white"	"no"	"xpyriment"	"legacy"	"legacy"	"0"	"no"	"relative"	"undefined"	"undefined"	"0"	"4"	"4"	"0"	"0"	"0"	"4"	"0"	"0"	"4"	"0"	"0"	"0"	"0"	"0"	"0"	"0"	"0"	"4"	"6"	"0"	"0"	"0"	"0"	"0"	"4"	"1147"	"235"	"02/21/18 14:44:00"	"Executes Python code"	"yes"	""	"lineup_liveMEN_W.osexp"	"C:\Users\Laptop10\Desktop\Wednesday 2102"	"no"	"mono"	"no"	"24"	"no"	"black"	"no"	"Continue"	"yes"	"768"	"No"	"no"	"no"	"no"	"legacy"	"4"	"0"	"4"	"0"	"C:/Users/Laptop10/Desktop/Wednesday 2102/subject-62.csv"	"5"	"xpyriment"	"Jazzy James"	"3.1.4"	"0"	"1"	"1"	"4613"	"4613"	"2"	"legacy"	"1024"	"2"	"48000"	"-16"	"experiment"	"62"	"even"	"legacy"	NA	NA	"96420"	NA	NA	NA	NA	NA	"1548"	"93693"	"1549"	NA	NA	"1553"	"1553"	"46915"	"46915"	"46897"	"89079"	"96420"	NA	NA	NA	NA	NA	"89078"	"lineup1"	"0"	"0"	"0"	"no"	"no"	"1366"
"14"	""	"undefined"	"undefined"	"undefined"	"undefined"	"white"	"no"	"xpyriment"	"legacy"	"legacy"	"0"	"90"	"relative"	"undefined"	"undefined"	"0"	"5"	"5"	"0"	"0"	"0"	"5"	"0"	"0"	"5"	"0"	"0"	"0"	"0"	"0"	"0"	"0"	"0"	"5"	"7"	"0"	"0"	"0"	"0"	"0"	"5"	"749"	"666"	"02/21/18 14:44:00"	"Executes Python code"	"yes"	""	"lineup_liveMEN_W.osexp"	"C:\Users\Laptop10\Desktop\Wednesday 2102"	"no"	"mono"	"no"	"24"	"no"	"black"	"no"	"Continue"	"yes"	"768"	"Yes"	"no"	"no"	"no"	"legacy"	"5"	"0"	"5"	"0"	"C:/Users/Laptop10/Desktop/Wednesday 2102/subject-62.csv"	"6"	"xpyriment"	"Jazzy James"	"3.1.4"	"0"	"1"	"1"	"4813"	"4813"	"2"	"legacy"	"1024"	"2"	"48000"	"-16"	"experiment"	"62"	"even"	"legacy"	NA	"123219"	"105209"	NA	NA	NA	"105209"	NA	"1548"	"101365"	"1549"	NA	NA	"1553"	"1553"	"46915"	"46915"	"46897"	"96552"	"123219"	NA	NA	NA	NA	NA	"96551"	"lineup1"	"0"	"0"	"0"	"no"	"no"	"1366"
"15"	""	"undefined"	"undefined"	"undefined"	"undefined"	"white"	"no"	"xpyriment"	"legacy"	"legacy"	"0"	"90"	"relative"	"undefined"	"undefined"	"0"	"5"	"5"	"0"	"0"	"0"	"5"	"0"	"0"	"5"	"0"	"0"	"0"	"0"	"0"	"0"	"0"	"0"	"5"	"7"	"0"	"0"	"0"	"0"	"0"	"5"	"749"	"666"	"02/21/18 14:44:00"	"Executes Python code"	"yes"	""	"lineup_liveMEN_W.osexp"	"C:\Users\Laptop10\Desktop\Wednesday 2102"	"no"	"mono"	"no"	"24"	"no"	"black"	"no"	"Continue"	"yes"	"768"	"Yes"	"Yes"	"One"	"No"	"legacy"	"5"	"0"	"5"	"0"	"C:/Users/Laptop10/Desktop/Wednesday 2102/subject-62.csv"	"6"	"xpyriment"	"Jazzy James"	"3.1.4"	"0"	"1"	"1"	"4813"	"4813"	"2"	"legacy"	"1024"	"2"	"48000"	"-16"	"experiment"	"62"	"even"	"legacy"	"133448"	"123219"	"105209"	"128056"	"133448"	"152957"	"105209"	NA	"1548"	"101365"	"1549"	NA	NA	"1553"	"1553"	"46915"	"46915"	"46897"	"96552"	"152957"	"123253"	"128056"	"136781"	NA	NA	"96551"	"lineup1"	"0"	"0"	"0"	"no"	"no"	"1366"
"16"	""	"undefined"	"undefined"	"undefined"	"undefined"	"white"	"no"	"xpyriment"	"legacy"	"legacy"	"0"	"90"	"relative"	"undefined"	"undefined"	"0"	"5"	"5"	"0"	"0"	"0"	"5"	"0"	"0"	"5"	"0"	"0"	"0"	"0"	"0"	"0"	"0"	"0"	"5"	"7"	"0"	"0"	"0"	"0"	"0"	"5"	"749"	"666"	"02/21/18 14:44:00"	"Executes Python code"	"yes"	""	"lineup_liveMEN_W.osexp"	"C:\Users\Laptop10\Desktop\Wednesday 2102"	"no"	"mono"	"no"	"24"	"no"	"black"	"no"	"Click to end"	"yes"	"768"	"Yes"	"Yes"	"One"	"No"	"legacy"	"5"	"0"	"5"	"0"	"C:/Users/Laptop10/Desktop/Wednesday 2102/subject-62.csv"	"6"	"xpyriment"	"Jazzy James"	"3.1.4"	"0"	"1"	"1"	"4813"	"4813"	"2"	"legacy"	"1024"	"2"	"48000"	"-16"	"experiment"	"62"	"even"	"legacy"	"133448"	"123219"	"105209"	"128056"	"133448"	"152957"	"105209"	"152987"	"1548"	"101365"	"1549"	NA	NA	"1553"	"1553"	"46915"	"46915"	"46897"	"96552"	"155153"	"123253"	"128056"	"136781"	NA	NA	"96551"	"lineup1"	"0"	"0"	"0"	"no"	"no"	"1366"
"17"	""	"undefined"	"undefined"	"undefined"	"undefined"	"white"	"no"	"xpyriment"	"legacy"	"legacy"	"0"	"no"	"relative"	"undefined"	"undefined"	"0"	"0"	"0"	"0"	"0"	"0"	"0"	"0"	"0"	"0"	"0"	"0"	"0"	"0"	"0"	"0"	"0"	"0"	"0"	"2"	"0"	"0"	"0"	"0"	"0"	"0"	"1362"	"767"	"02/21/18 14:54:03"	"Executes Python code"	"yes"	""	"lineup_liveMEN_W.osexp"	"C:\Users\Laptop10\Desktop\Wednesday 2102"	"no"	"mono"	"no"	"24"	"no"	"black"	"no"	"Continue"	"yes"	"768"	"No"	"no"	"no"	"no"	"legacy"	"0"	"0"	"0"	"0"	"C:/Users/Laptop10/Desktop/Wednesday 2102/subject-63.csv"	"1"	"xpyriment"	"Jazzy James"	"3.1.4"	"0"	"1"	"1"	"19195"	"19195"	"2"	"legacy"	"1024"	"2"	"48000"	"-16"	"experiment"	"63"	"odd"	"legacy"	NA	NA	"71861"	NA	NA	NA	NA	NA	"1572"	"66367"	"1572"	NA	NA	"1577"	"1577"	"47077"	"47077"	"47059"	"47172"	"71861"	NA	NA	NA	NA	NA	"47171"	"lineup1"	"0"	"0"	"0"	"no"	"no"	"1366"
"18"	""	"undefined"	"undefined"	"undefined"	"undefined"	"white"	"no"	"xpyriment"	"legacy"	"legacy"	"0"	"no"	"relative"	"undefined"	"undefined"	"0"	"1"	"1"	"0"	"0"	"0"	"1"	"0"	"0"	"1"	"0"	"0"	"0"	"0"	"0"	"0"	"0"	"0"	"1"	"3"	"0"	"0"	"0"	"0"	"0"	"1"	"423"	"513"	"02/21/18 14:54:03"	"Executes Python code"	"yes"	""	"lineup_liveMEN_W.osexp"	"C:\Users\Laptop10\Desktop\Wednesday 2102"	"no"	"mono"	"no"	"24"	"no"	"black"	"no"	"Continue"	"yes"	"768"	"No"	"no"	"no"	"no"	"legacy"	"1"	"0"	"1"	"0"	"C:/Users/Laptop10/Desktop/Wednesday 2102/subject-63.csv"	"2"	"xpyriment"	"Jazzy James"	"3.1.4"	"0"	"1"	"1"	"9629"	"9629"	"2"	"legacy"	"1024"	"2"	"48000"	"-16"	"experiment"	"63"	"odd"	"legacy"	NA	NA	"86617"	NA	NA	NA	NA	NA	"1572"	"81624"	"1572"	NA	NA	"1577"	"1577"	"47077"	"47077"	"47059"	"71994"	"86617"	NA	NA	NA	NA	NA	"71993"	"lineup1"	"0"	"0"	"0"	"no"	"no"	"1366"
"19"	""	"undefined"	"undefined"	"undefined"	"undefined"	"white"	"no"	"xpyriment"	"legacy"	"legacy"	"0"	"no"	"relative"	"undefined"	"undefined"	"0"	"2"	"2"	"0"	"0"	"0"	"2"	"0"	"0"	"2"	"0"	"0"	"0"	"0"	"0"	"0"	"0"	"0"	"2"	"4"	"0"	"0"	"0"	"0"	"0"	"2"	"499"	"531"	"02/21/18 14:54:03"	"Executes Python code"	"yes"	""	"lineup_liveMEN_W.osexp"	"C:\Users\Laptop10\Desktop\Wednesday 2102"	"no"	"mono"	"no"	"24"	"no"	"black"	"no"	"Continue"	"yes"	"768"	"Not sure"	"no"	"no"	"no"	"legacy"	"2"	"0"	"2"	"0"	"C:/Users/Laptop10/Desktop/Wednesday 2102/subject-63.csv"	"3"	"xpyriment"	"Jazzy James"	"3.1.4"	"0"	"1"	"1"	"6591"	"6591"	"2"	"legacy"	"1024"	"2"	"48000"	"-16"	"experiment"	"63"	"odd"	"legacy"	NA	NA	"99274"	NA	NA	NA	NA	NA	"1572"	"93343"	"1572"	NA	NA	"1577"	"1577"	"47077"	"47077"	"47059"	"86751"	"99274"	NA	NA	NA	NA	NA	"86749"	"lineup1"	"0"	"0"	"0"	"no"	"no"	"1366"
"20"	""	"undefined"	"undefined"	"undefined"	"undefined"	"white"	"no"	"xpyriment"	"legacy"	"legacy"	"0"	"no"	"relative"	"undefined"	"undefined"	"0"	"3"	"3"	"0"	"0"	"0"	"3"	"0"	"0"	"3"	"0"	"0"	"0"	"0"	"0"	"0"	"0"	"0"	"3"	"5"	"0"	"0"	"0"	"0"	"0"	"3"	"56"	"606"	"02/21/18 14:54:03"	"Executes Python code"	"yes"	""	"lineup_liveMEN_W.osexp"	"C:\Users\Laptop10\Desktop\Wednesday 2102"	"no"	"mono"	"no"	"24"	"no"	"black"	"no"	"Continue"	"yes"	"768"	"Not sure"	"no"	"no"	"no"	"legacy"	"3"	"0"	"3"	"0"	"C:/Users/Laptop10/Desktop/Wednesday 2102/subject-63.csv"	"4"	"xpyriment"	"Jazzy James"	"3.1.4"	"0"	"1"	"1"	"9162"	"9162"	"2"	"legacy"	"1024"	"2"	"48000"	"-16"	"experiment"	"63"	"odd"	"legacy"	NA	NA	"113235"	NA	NA	NA	NA	NA	"1572"	"108567"	"1572"	NA	NA	"1577"	"1577"	"47077"	"47077"	"47059"	"99404"	"113235"	NA	NA	NA	NA	NA	"99403"	"lineup1"	"0"	"0"	"0"	"no"	"no"	"1366"
"21"	""	"undefined"	"undefined"	"undefined"	"undefined"	"white"	"no"	"xpyriment"	"legacy"	"legacy"	"0"	"no"	"relative"	"undefined"	"undefined"	"0"	"4"	"4"	"0"	"0"	"0"	"4"	"0"	"0"	"4"	"0"	"0"	"0"	"0"	"0"	"0"	"0"	"0"	"4"	"6"	"0"	"0"	"0"	"0"	"0"	"4"	"638"	"564"	"02/21/18 14:54:03"	"Executes Python code"	"yes"	""	"lineup_liveMEN_W.osexp"	"C:\Users\Laptop10\Desktop\Wednesday 2102"	"no"	"mono"	"no"	"24"	"no"	"black"	"no"	"Continue"	"yes"	"768"	"No"	"no"	"no"	"no"	"legacy"	"4"	"0"	"4"	"0"	"C:/Users/Laptop10/Desktop/Wednesday 2102/subject-63.csv"	"5"	"xpyriment"	"Jazzy James"	"3.1.4"	"0"	"1"	"1"	"7402"	"7402"	"2"	"legacy"	"1024"	"2"	"48000"	"-16"	"experiment"	"63"	"odd"	"legacy"	NA	NA	"125277"	NA	NA	NA	NA	NA	"1572"	"120767"	"1572"	NA	NA	"1577"	"1577"	"47077"	"47077"	"47059"	"113365"	"125278"	NA	NA	NA	NA	NA	"113364"	"lineup1"	"0"	"0"	"0"	"no"	"no"	"1366"
"22"	""	"undefined"	"undefined"	"undefined"	"undefined"	"white"	"no"	"xpyriment"	"legacy"	"legacy"	"0"	"70"	"relative"	"undefined"	"undefined"	"0"	"5"	"5"	"0"	"0"	"0"	"5"	"0"	"0"	"5"	"0"	"0"	"0"	"0"	"0"	"0"	"0"	"0"	"5"	"7"	"0"	"0"	"0"	"0"	"0"	"5"	"37"	"502"	"02/21/18 14:54:03"	"Executes Python code"	"yes"	""	"lineup_liveMEN_W.osexp"	"C:\Users\Laptop10\Desktop\Wednesday 2102"	"no"	"mono"	"no"	"24"	"no"	"black"	"no"	"Continue"	"yes"	"768"	"Yes"	"no"	"no"	"no"	"legacy"	"5"	"0"	"5"	"0"	"C:/Users/Laptop10/Desktop/Wednesday 2102/subject-63.csv"	"6"	"xpyriment"	"Jazzy James"	"3.1.4"	"0"	"1"	"1"	"4703"	"4703"	"2"	"legacy"	"1024"	"2"	"48000"	"-16"	"experiment"	"63"	"odd"	"legacy"	NA	"142733"	"134791"	NA	NA	NA	"134792"	NA	"1572"	"130111"	"1572"	NA	NA	"1577"	"1577"	"47077"	"47077"	"47059"	"125408"	"142733"	NA	NA	NA	NA	NA	"125407"	"lineup1"	"0"	"0"	"0"	"no"	"no"	"1366"
"23"	""	"undefined"	"undefined"	"undefined"	"undefined"	"white"	"no"	"xpyriment"	"legacy"	"legacy"	"0"	"70"	"relative"	"undefined"	"undefined"	"0"	"5"	"5"	"0"	"0"	"0"	"5"	"0"	"0"	"5"	"0"	"0"	"0"	"0"	"0"	"0"	"0"	"0"	"5"	"7"	"0"	"0"	"0"	"0"	"0"	"5"	"37"	"502"	"02/21/18 14:54:03"	"Executes Python code"	"yes"	""	"lineup_liveMEN_W.osexp"	"C:\Users\Laptop10\Desktop\Wednesday 2102"	"no"	"mono"	"no"	"24"	"no"	"black"	"no"	"Continue"	"yes"	"768"	"Yes"	"Yes"	"One"	"No"	"legacy"	"5"	"0"	"5"	"0"	"C:/Users/Laptop10/Desktop/Wednesday 2102/subject-63.csv"	"6"	"xpyriment"	"Jazzy James"	"3.1.4"	"0"	"1"	"1"	"4703"	"4703"	"2"	"legacy"	"1024"	"2"	"48000"	"-16"	"experiment"	"63"	"odd"	"legacy"	"151815"	"142733"	"134791"	"146725"	"151815"	"177379"	"134792"	NA	"1572"	"130111"	"1572"	NA	NA	"1577"	"1577"	"47077"	"47077"	"47059"	"125408"	"177379"	"142768"	"146725"	"155467"	NA	NA	"125407"	"lineup1"	"0"	"0"	"0"	"no"	"no"	"1366"
"24"	""	"undefined"	"undefined"	"undefined"	"undefined"	"white"	"no"	"xpyriment"	"legacy"	"legacy"	"0"	"70"	"relative"	"undefined"	"undefined"	"0"	"5"	"5"	"0"	"0"	"0"	"5"	"0"	"0"	"5"	"0"	"0"	"0"	"0"	"0"	"0"	"0"	"0"	"5"	"7"	"0"	"0"	"0"	"0"	"0"	"5"	"37"	"502"	"02/21/18 14:54:03"	"Executes Python code"	"yes"	""	"lineup_liveMEN_W.osexp"	"C:\Users\Laptop10\Desktop\Wednesday 2102"	"no"	"mono"	"no"	"24"	"no"	"black"	"no"	"Click to end"	"yes"	"768"	"Yes"	"Yes"	"One"	"No"	"legacy"	"5"	"0"	"5"	"0"	"C:/Users/Laptop10/Desktop/Wednesday 2102/subject-63.csv"	"6"	"xpyriment"	"Jazzy James"	"3.1.4"	"0"	"1"	"1"	"4703"	"4703"	"2"	"legacy"	"1024"	"2"	"48000"	"-16"	"experiment"	"63"	"odd"	"legacy"	"151815"	"142733"	"134791"	"146725"	"151815"	"177379"	"134792"	"177411"	"1572"	"130111"	"1572"	NA	NA	"1577"	"1577"	"47077"	"47077"	"47059"	"125408"	"178598"	"142768"	"146725"	"155467"	NA	NA	"125407"	"lineup1"	"0"	"0"	"0"	"no"	"no"	"1366"
"25"	""	"undefined"	"undefined"	"undefined"	"undefined"	"white"	"no"	"xpyriment"	"legacy"	"legacy"	"0"	"no"	"relative"	"undefined"	"undefined"	"0"	"0"	"0"	"0"	"0"	"0"	"0"	"0"	"0"	"0"	"0"	"0"	"0"	"0"	"0"	"0"	"0"	"0"	"0"	"2"	"0"	"0"	"0"	"0"	"0"	"0"	"860"	"509"	"02/21/18 15:20:48"	"Executes Python code"	"yes"	""	"lineup_liveMEN_W.osexp"	"C:\Users\Laptop10\Desktop\Wednesday 2102"	"no"	"mono"	"no"	"24"	"no"	"black"	"no"	"Continue"	"yes"	"768"	"No"	"no"	"no"	"no"	"legacy"	"0"	"0"	"0"	"0"	"C:/Users/Laptop10/Desktop/Wednesday 2102/subject-64.csv"	"1"	"xpyriment"	"Jazzy James"	"3.1.4"	"0"	"1"	"1"	"13851"	"13851"	"2"	"legacy"	"1024"	"2"	"48000"	"-16"	"experiment"	"64"	"even"	"legacy"	NA	NA	"73950"	NA	NA	NA	NA	NA	"1610"	"70343"	"1611"	NA	NA	"1615"	"1615"	"56397"	"56397"	"56379"	"56492"	"73950"	NA	NA	NA	NA	NA	"56491"	"lineup1"	"0"	"0"	"0"	"no"	"no"	"1366"
"26"	""	"undefined"	"undefined"	"undefined"	"undefined"	"white"	"no"	"xpyriment"	"legacy"	"legacy"	"0"	"no"	"relative"	"undefined"	"undefined"	"0"	"1"	"1"	"0"	"0"	"0"	"1"	"0"	"0"	"1"	"0"	"0"	"0"	"0"	"0"	"0"	"0"	"0"	"1"	"3"	"0"	"0"	"0"	"0"	"0"	"1"	"333"	"576"	"02/21/18 15:20:48"	"Executes Python code"	"yes"	""	"lineup_liveMEN_W.osexp"	"C:\Users\Laptop10\Desktop\Wednesday 2102"	"no"	"mono"	"no"	"24"	"no"	"black"	"no"	"Continue"	"yes"	"768"	"No"	"no"	"no"	"no"	"legacy"	"1"	"0"	"1"	"0"	"C:/Users/Laptop10/Desktop/Wednesday 2102/subject-64.csv"	"2"	"xpyriment"	"Jazzy James"	"3.1.4"	"0"	"1"	"1"	"7452"	"7452"	"2"	"legacy"	"1024"	"2"	"48000"	"-16"	"experiment"	"64"	"even"	"legacy"	NA	NA	"85056"	NA	NA	NA	NA	NA	"1610"	"81536"	"1611"	NA	NA	"1615"	"1615"	"56397"	"56397"	"56379"	"74083"	"85056"	NA	NA	NA	NA	NA	"74082"	"lineup1"	"0"	"0"	"0"	"no"	"no"	"1366"
"27"	""	"undefined"	"undefined"	"undefined"	"undefined"	"white"	"no"	"xpyriment"	"legacy"	"legacy"	"0"	"no"	"relative"	"undefined"	"undefined"	"0"	"2"	"2"	"0"	"0"	"0"	"2"	"0"	"0"	"2"	"0"	"0"	"0"	"0"	"0"	"0"	"0"	"0"	"2"	"4"	"0"	"0"	"0"	"0"	"0"	"2"	"316"	"540"	"02/21/18 15:20:48"	"Executes Python code"	"yes"	""	"lineup_liveMEN_W.osexp"	"C:\Users\Laptop10\Desktop\Wednesday 2102"	"no"	"mono"	"no"	"24"	"no"	"black"	"no"	"Continue"	"yes"	"768"	"No"	"no"	"no"	"no"	"legacy"	"2"	"0"	"2"	"0"	"C:/Users/Laptop10/Desktop/Wednesday 2102/subject-64.csv"	"3"	"xpyriment"	"Jazzy James"	"3.1.4"	"0"	"1"	"1"	"5875"	"5875"	"2"	"legacy"	"1024"	"2"	"48000"	"-16"	"experiment"	"64"	"even"	"legacy"	NA	NA	"100991"	NA	NA	NA	NA	NA	"1610"	"91064"	"1611"	NA	NA	"1615"	"1615"	"56397"	"56397"	"56379"	"85189"	"100991"	NA	NA	NA	NA	NA	"85188"	"lineup1"	"0"	"0"	"0"	"no"	"no"	"1366"
"28"	""	"undefined"	"undefined"	"undefined"	"undefined"	"white"	"no"	"xpyriment"	"legacy"	"legacy"	"0"	"20"	"relative"	"undefined"	"undefined"	"0"	"3"	"3"	"0"	"0"	"0"	"3"	"0"	"0"	"3"	"0"	"0"	"0"	"0"	"0"	"0"	"0"	"0"	"3"	"5"	"0"	"0"	"0"	"0"	"0"	"3"	"320"	"561"	"02/21/18 15:20:48"	"Executes Python code"	"yes"	""	"lineup_liveMEN_W.osexp"	"C:\Users\Laptop10\Desktop\Wednesday 2102"	"no"	"mono"	"no"	"24"	"no"	"black"	"no"	"Continue"	"yes"	"768"	"Yes"	"no"	"no"	"no"	"legacy"	"3"	"0"	"3"	"0"	"C:/Users/Laptop10/Desktop/Wednesday 2102/subject-64.csv"	"4"	"xpyriment"	"Jazzy James"	"3.1.4"	"0"	"1"	"1"	"1783"	"1783"	"2"	"legacy"	"1024"	"2"	"48000"	"-16"	"experiment"	"64"	"even"	"legacy"	NA	"114385"	"108016"	NA	NA	NA	"108016"	NA	"1610"	"102903"	"1611"	NA	NA	"1615"	"1615"	"56397"	"56397"	"56379"	"101120"	"114385"	NA	NA	NA	NA	NA	"101119"	"lineup1"	"0"	"0"	"0"	"no"	"no"	"1366"
"29"	""	"undefined"	"undefined"	"undefined"	"undefined"	"white"	"no"	"xpyriment"	"legacy"	"legacy"	"0"	"no"	"relative"	"undefined"	"undefined"	"0"	"4"	"4"	"0"	"0"	"0"	"4"	"0"	"0"	"4"	"0"	"0"	"0"	"0"	"0"	"0"	"0"	"0"	"4"	"6"	"0"	"0"	"0"	"0"	"0"	"4"	"542"	"532"	"02/21/18 15:20:48"	"Executes Python code"	"yes"	""	"lineup_liveMEN_W.osexp"	"C:\Users\Laptop10\Desktop\Wednesday 2102"	"no"	"mono"	"no"	"24"	"no"	"black"	"no"	"Continue"	"yes"	"768"	"No"	"no"	"no"	"no"	"legacy"	"4"	"0"	"4"	"0"	"C:/Users/Laptop10/Desktop/Wednesday 2102/subject-64.csv"	"5"	"xpyriment"	"Jazzy James"	"3.1.4"	"0"	"1"	"1"	"8044"	"8044"	"2"	"legacy"	"1024"	"2"	"48000"	"-16"	"experiment"	"64"	"even"	"legacy"	NA	"114385"	"125292"	NA	NA	NA	"108016"	NA	"1610"	"122559"	"1611"	NA	NA	"1615"	"1615"	"56397"	"56397"	"56379"	"114515"	"125292"	NA	NA	NA	NA	NA	"114514"	"lineup1"	"0"	"0"	"0"	"no"	"no"	"1366"
"30"	""	"undefined"	"undefined"	"undefined"	"undefined"	"white"	"no"	"xpyriment"	"legacy"	"legacy"	"0"	"50"	"relative"	"undefined"	"undefined"	"0"	"5"	"5"	"0"	"0"	"0"	"5"	"0"	"0"	"5"	"0"	"0"	"0"	"0"	"0"	"0"	"0"	"0"	"5"	"7"	"0"	"0"	"0"	"0"	"0"	"5"	"202"	"633"	"02/21/18 15:20:48"	"Executes Python code"	"yes"	""	"lineup_liveMEN_W.osexp"	"C:\Users\Laptop10\Desktop\Wednesday 2102"	"no"	"mono"	"no"	"24"	"no"	"black"	"no"	"Continue"	"yes"	"768"	"Yes"	"no"	"no"	"no"	"legacy"	"5"	"0"	"5"	"0"	"C:/Users/Laptop10/Desktop/Wednesday 2102/subject-64.csv"	"6"	"xpyriment"	"Jazzy James"	"3.1.4"	"0"	"1"	"1"	"6401"	"6401"	"2"	"legacy"	"1024"	"2"	"48000"	"-16"	"experiment"	"64"	"even"	"legacy"	NA	"139827"	"135336"	NA	NA	NA	"135336"	NA	"1610"	"131832"	"1611"	NA	NA	"1615"	"1615"	"56397"	"56397"	"56379"	"125430"	"139827"	NA	NA	NA	NA	NA	"125429"	"lineup1"	"0"	"0"	"0"	"no"	"no"	"1366"
"31"	""	"undefined"	"undefined"	"undefined"	"undefined"	"white"	"no"	"xpyriment"	"legacy"	"legacy"	"0"	"no"	"relative"	"undefined"	"undefined"	"1"	"6"	"6"	"1"	"1"	"1"	"6"	"0"	"0"	"6"	"0"	"1"	"1"	"0"	"0"	"1"	"1"	"0"	"6"	"9"	"1"	"1"	"1"	"1"	"1"	"6"	"681"	"605"	"02/21/18 15:20:48"	"Executes Python code"	"yes"	""	"lineup_liveMEN_W.osexp"	"C:\Users\Laptop10\Desktop\Wednesday 2102"	"no"	"mono"	"no"	"24"	"no"	"black"	"no"	"Continue"	"yes"	"768"	"No"	"no"	"no"	"no"	"legacy"	"0"	"0"	"0"	"0"	"C:/Users/Laptop10/Desktop/Wednesday 2102/subject-64.csv"	"1"	"xpyriment"	"Jazzy James"	"3.1.4"	"0"	"1"	"1"	"11015"	"11015"	"2"	"legacy"	"1024"	"2"	"48000"	"-16"	"experiment"	"64"	"even"	"legacy"	NA	"139827"	"173532"	"146261"	"150246"	NA	"135336"	NA	"1610"	"170975"	"1611"	"150246"	NA	"1615"	"1615"	"159863"	"159863"	"56379"	"159960"	"173532"	"139860"	"146261"	NA	NA	"159845"	"159959"	"lineup1"	"0"	"0"	"0"	"no"	"no"	"1366"
"32"	""	"undefined"	"undefined"	"undefined"	"undefined"	"white"	"no"	"xpyriment"	"legacy"	"legacy"	"0"	"no"	"relative"	"undefined"	"undefined"	"1"	"7"	"7"	"1"	"1"	"1"	"7"	"0"	"0"	"7"	"0"	"1"	"1"	"0"	"0"	"1"	"1"	"0"	"7"	"10"	"1"	"1"	"1"	"1"	"1"	"7"	"254"	"637"	"02/21/18 15:20:48"	"Executes Python code"	"yes"	""	"lineup_liveMEN_W.osexp"	"C:\Users\Laptop10\Desktop\Wednesday 2102"	"no"	"mono"	"no"	"24"	"no"	"black"	"no"	"Continue"	"yes"	"768"	"No"	"no"	"no"	"no"	"legacy"	"1"	"0"	"1"	"0"	"C:/Users/Laptop10/Desktop/Wednesday 2102/subject-64.csv"	"2"	"xpyriment"	"Jazzy James"	"3.1.4"	"0"	"1"	"1"	"8687"	"8687"	"2"	"legacy"	"1024"	"2"	"48000"	"-16"	"experiment"	"64"	"even"	"legacy"	NA	"139827"	"185232"	"146261"	"150246"	NA	"135336"	NA	"1610"	"182359"	"1611"	"150246"	NA	"1615"	"1615"	"159863"	"159863"	"56379"	"173672"	"185232"	"139860"	"146261"	NA	NA	"159845"	"173671"	"lineup1"	"0"	"0"	"0"	"no"	"no"	"1366"
"33"	""	"undefined"	"undefined"	"undefined"	"undefined"	"white"	"no"	"xpyriment"	"legacy"	"legacy"	"0"	"no"	"relative"	"undefined"	"undefined"	"1"	"8"	"8"	"1"	"1"	"1"	"8"	"0"	"0"	"8"	"0"	"1"	"1"	"0"	"0"	"1"	"1"	"0"	"8"	"11"	"1"	"1"	"1"	"1"	"1"	"8"	"42"	"690"	"02/21/18 15:20:48"	"Executes Python code"	"yes"	""	"lineup_liveMEN_W.osexp"	"C:\Users\Laptop10\Desktop\Wednesday 2102"	"no"	"mono"	"no"	"24"	"no"	"black"	"no"	"Continue"	"yes"	"768"	"No"	"no"	"no"	"no"	"legacy"	"2"	"0"	"2"	"0"	"C:/Users/Laptop10/Desktop/Wednesday 2102/subject-64.csv"	"3"	"xpyriment"	"Jazzy James"	"3.1.4"	"0"	"1"	"1"	"6819"	"6819"	"2"	"legacy"	"1024"	"2"	"48000"	"-16"	"experiment"	"64"	"even"	"legacy"	NA	"139827"	"195075"	"146261"	"150246"	NA	"135336"	NA	"1610"	"192183"	"1611"	"150246"	NA	"1615"	"1615"	"159863"	"159863"	"56379"	"185363"	"195075"	"139860"	"146261"	NA	NA	"159845"	"185362"	"lineup1"	"0"	"0"	"0"	"no"	"no"	"1366"
"34"	""	"undefined"	"undefined"	"undefined"	"undefined"	"white"	"no"	"xpyriment"	"legacy"	"legacy"	"0"	"no"	"relative"	"undefined"	"undefined"	"1"	"9"	"9"	"1"	"1"	"1"	"9"	"0"	"0"	"9"	"0"	"1"	"1"	"0"	"0"	"1"	"1"	"0"	"9"	"12"	"1"	"1"	"1"	"1"	"1"	"9"	"265"	"565"	"02/21/18 15:20:48"	"Executes Python code"	"yes"	""	"lineup_liveMEN_W.osexp"	"C:\Users\Laptop10\Desktop\Wednesday 2102"	"no"	"mono"	"no"	"24"	"no"	"black"	"no"	"Continue"	"yes"	"768"	"No"	"no"	"no"	"no"	"legacy"	"3"	"0"	"3"	"0"	"C:/Users/Laptop10/Desktop/Wednesday 2102/subject-64.csv"	"4"	"xpyriment"	"Jazzy James"	"3.1.4"	"0"	"1"	"1"	"5001"	"5001"	"2"	"legacy"	"1024"	"2"	"48000"	"-16"	"experiment"	"64"	"even"	"legacy"	NA	"139827"	"203088"	"146261"	"150246"	NA	"135336"	NA	"1610"	"200207"	"1611"	"150246"	NA	"1615"	"1615"	"159863"	"159863"	"56379"	"195206"	"203088"	"139860"	"146261"	NA	NA	"159845"	"195206"	"lineup1"	"0"	"0"	"0"	"no"	"no"	"1366"
"35"	""	"undefined"	"undefined"	"undefined"	"undefined"	"white"	"no"	"xpyriment"	"legacy"	"legacy"	"0"	"no"	"relative"	"undefined"	"undefined"	"1"	"10"	"10"	"1"	"1"	"1"	"10"	"0"	"0"	"10"	"0"	"1"	"1"	"0"	"0"	"1"	"1"	"0"	"10"	"13"	"1"	"1"	"1"	"1"	"1"	"10"	"244"	"589"	"02/21/18 15:20:48"	"Executes Python code"	"yes"	""	"lineup_liveMEN_W.osexp"	"C:\Users\Laptop10\Desktop\Wednesday 2102"	"no"	"mono"	"no"	"24"	"no"	"black"	"no"	"Continue"	"yes"	"768"	"No"	"no"	"no"	"no"	"legacy"	"4"	"0"	"4"	"0"	"C:/Users/Laptop10/Desktop/Wednesday 2102/subject-64.csv"	"5"	"xpyriment"	"Jazzy James"	"3.1.4"	"0"	"1"	"1"	"3987"	"3987"	"2"	"legacy"	"1024"	"2"	"48000"	"-16"	"experiment"	"64"	"even"	"legacy"	NA	"139827"	"211212"	"146261"	"150246"	NA	"135336"	NA	"1610"	"207207"	"1611"	"150246"	NA	"1615"	"1615"	"159863"	"159863"	"56379"	"203219"	"211212"	"139860"	"146261"	NA	NA	"159845"	"203218"	"lineup1"	"0"	"0"	"0"	"no"	"no"	"1366"
"36"	""	"undefined"	"undefined"	"undefined"	"undefined"	"white"	"no"	"xpyriment"	"legacy"	"legacy"	"0"	"60"	"relative"	"undefined"	"undefined"	"1"	"11"	"11"	"1"	"1"	"1"	"11"	"0"	"0"	"11"	"0"	"1"	"1"	"0"	"0"	"1"	"1"	"0"	"11"	"14"	"1"	"1"	"1"	"1"	"1"	"11"	"360"	"547"	"02/21/18 15:20:48"	"Executes Python code"	"yes"	""	"lineup_liveMEN_W.osexp"	"C:\Users\Laptop10\Desktop\Wednesday 2102"	"no"	"mono"	"no"	"24"	"no"	"black"	"no"	"Continue"	"yes"	"768"	"Yes"	"no"	"no"	"no"	"legacy"	"5"	"0"	"5"	"0"	"C:/Users/Laptop10/Desktop/Wednesday 2102/subject-64.csv"	"6"	"xpyriment"	"Jazzy James"	"3.1.4"	"0"	"1"	"1"	"4575"	"4575"	"2"	"legacy"	"1024"	"2"	"48000"	"-16"	"experiment"	"64"	"even"	"legacy"	NA	"222971"	"219290"	"146261"	"150246"	NA	"219290"	NA	"1610"	"215919"	"1611"	"150246"	NA	"1615"	"1615"	"159863"	"159863"	"56379"	"211344"	"222971"	"139860"	"146261"	NA	NA	"159845"	"211343"	"lineup1"	"0"	"0"	"0"	"no"	"no"	"1366"
"37"	""	"undefined"	"undefined"	"undefined"	"undefined"	"white"	"no"	"xpyriment"	"legacy"	"legacy"	"0"	"60"	"relative"	"undefined"	"undefined"	"1"	"11"	"11"	"1"	"1"	"1"	"11"	"0"	"0"	"11"	"0"	"1"	"1"	"0"	"0"	"1"	"1"	"0"	"11"	"14"	"1"	"1"	"1"	"1"	"1"	"11"	"360"	"547"	"02/21/18 15:20:48"	"Executes Python code"	"yes"	""	"lineup_liveMEN_W.osexp"	"C:\Users\Laptop10\Desktop\Wednesday 2102"	"no"	"mono"	"no"	"24"	"no"	"black"	"no"	"Continue"	"yes"	"768"	"Yes"	"Yes"	"One"	"No"	"legacy"	"5"	"0"	"5"	"0"	"C:/Users/Laptop10/Desktop/Wednesday 2102/subject-64.csv"	"6"	"xpyriment"	"Jazzy James"	"3.1.4"	"0"	"1"	"1"	"4575"	"4575"	"2"	"legacy"	"1024"	"2"	"48000"	"-16"	"experiment"	"64"	"even"	"legacy"	"231258"	"222971"	"219290"	"227659"	"231258"	"252469"	"219290"	NA	"1610"	"215919"	"1611"	"150246"	NA	"1615"	"1615"	"159863"	"159863"	"56379"	"211344"	"252469"	"223006"	"227659"	"235055"	NA	"159845"	"211343"	"lineup1"	"0"	"0"	"0"	"no"	"no"	"1366"
"38"	""	"undefined"	"undefined"	"undefined"	"undefined"	"white"	"no"	"xpyriment"	"legacy"	"legacy"	"0"	"60"	"relative"	"undefined"	"undefined"	"1"	"11"	"11"	"1"	"1"	"1"	"11"	"0"	"0"	"11"	"0"	"1"	"1"	"0"	"0"	"1"	"1"	"0"	"11"	"14"	"1"	"1"	"1"	"1"	"1"	"11"	"360"	"547"	"02/21/18 15:20:48"	"Executes Python code"	"yes"	""	"lineup_liveMEN_W.osexp"	"C:\Users\Laptop10\Desktop\Wednesday 2102"	"no"	"mono"	"no"	"24"	"no"	"black"	"no"	"Continue"	"yes"	"768"	"Yes"	"Yes"	"One"	"No"	"legacy"	"5"	"0"	"5"	"0"	"C:/Users/Laptop10/Desktop/Wednesday 2102/subject-64.csv"	"6"	"xpyriment"	"Jazzy James"	"3.1.4"	"0"	"1"	"1"	"4575"	"4575"	"2"	"legacy"	"1024"	"2"	"48000"	"-16"	"experiment"	"64"	"even"	"legacy"	"252500"	"222971"	"219290"	"227659"	"231258"	"257787"	"219290"	NA	"1610"	"215919"	"1611"	"150246"	NA	"1615"	"1615"	"159863"	"159863"	"56379"	"211344"	"257787"	"223006"	"227659"	"255199"	NA	"159845"	"211343"	"lineup1"	"0"	"0"	"0"	"no"	"no"	"1366"
"39"	""	"undefined"	"undefined"	"undefined"	"undefined"	"white"	"no"	"xpyriment"	"legacy"	"legacy"	"0"	"60"	"relative"	"undefined"	"undefined"	"1"	"11"	"11"	"1"	"1"	"1"	"11"	"0"	"0"	"11"	"0"	"1"	"1"	"0"	"0"	"1"	"1"	"0"	"11"	"14"	"1"	"1"	"1"	"1"	"1"	"11"	"360"	"547"	"02/21/18 15:20:48"	"Executes Python code"	"yes"	""	"lineup_liveMEN_W.osexp"	"C:\Users\Laptop10\Desktop\Wednesday 2102"	"no"	"mono"	"no"	"24"	"no"	"black"	"no"	"Click to end"	"yes"	"768"	"Yes"	"Yes"	"One"	"No"	"legacy"	"5"	"0"	"5"	"0"	"C:/Users/Laptop10/Desktop/Wednesday 2102/subject-64.csv"	"6"	"xpyriment"	"Jazzy James"	"3.1.4"	"0"	"1"	"1"	"4575"	"4575"	"2"	"legacy"	"1024"	"2"	"48000"	"-16"	"experiment"	"64"	"even"	"legacy"	"252500"	"222971"	"219290"	"227659"	"231258"	"257787"	"219290"	"257817"	"1610"	"215919"	"1611"	"150246"	NA	"1615"	"1615"	"159863"	"159863"	"56379"	"211344"	"259002"	"223006"	"227659"	"255199"	NA	"159845"	"211343"	"lineup1"	"0"	"0"	"0"	"no"	"no"	"1366"
"40"	""	"undefined"	"undefined"	"undefined"	"undefined"	"white"	"no"	"xpyriment"	"legacy"	"legacy"	"0"	"no"	"relative"	"undefined"	"undefined"	"0"	"0"	"0"	"0"	"0"	"0"	"0"	"0"	"0"	"0"	"0"	"0"	"0"	"0"	"0"	"0"	"0"	"0"	"0"	"2"	"0"	"0"	"0"	"0"	"0"	"0"	"1220"	"514"	"02/21/18 14:40:24"	"Executes Python code"	"yes"	""	"lineup_liveMEN_W.osexp"	"C:\Users\Laptop10\Desktop\Wednesday 2102"	"no"	"mono"	"no"	"24"	"no"	"black"	"no"	"Continue"	"yes"	"768"	"No"	"no"	"no"	"no"	"legacy"	"0"	"0"	"0"	"0"	"C:/Users/Laptop10/Desktop/Wednesday 2102/subject-65.csv"	"1"	"xpyriment"	"Jazzy James"	"3.1.4"	"0"	"1"	"1"	"28689"	"28689"	"2"	"legacy"	"1024"	"2"	"48000"	"-16"	"experiment"	"65"	"odd"	"legacy"	NA	NA	"73974"	NA	NA	NA	NA	NA	"1716"	"69459"	"1718"	NA	NA	"1722"	"1722"	"40674"	"40674"	"40656"	"40770"	"73974"	NA	NA	NA	NA	NA	"40769"	"lineup1"	"0"	"0"	"0"	"no"	"no"	"1366"
"41"	""	"undefined"	"undefined"	"undefined"	"undefined"	"white"	"no"	"xpyriment"	"legacy"	"legacy"	"0"	"no"	"relative"	"undefined"	"undefined"	"0"	"1"	"1"	"0"	"0"	"0"	"1"	"0"	"0"	"1"	"0"	"0"	"0"	"0"	"0"	"0"	"0"	"0"	"1"	"3"	"0"	"0"	"0"	"0"	"0"	"1"	"846"	"598"	"02/21/18 14:40:24"	"Executes Python code"	"yes"	""	"lineup_liveMEN_W.osexp"	"C:\Users\Laptop10\Desktop\Wednesday 2102"	"no"	"mono"	"no"	"24"	"no"	"black"	"no"	"Continue"	"yes"	"768"	"No"	"no"	"no"	"no"	"legacy"	"1"	"0"	"1"	"0"	"C:/Users/Laptop10/Desktop/Wednesday 2102/subject-65.csv"	"2"	"xpyriment"	"Jazzy James"	"3.1.4"	"0"	"1"	"1"	"10753"	"10753"	"2"	"legacy"	"1024"	"2"	"48000"	"-16"	"experiment"	"65"	"odd"	"legacy"	NA	NA	"87475"	NA	NA	NA	NA	NA	"1716"	"84907"	"1718"	NA	NA	"1722"	"1722"	"40674"	"40674"	"40656"	"74154"	"87475"	NA	NA	NA	NA	NA	"74152"	"lineup1"	"0"	"0"	"0"	"no"	"no"	"1366"
"42"	""	"undefined"	"undefined"	"undefined"	"undefined"	"white"	"no"	"xpyriment"	"legacy"	"legacy"	"0"	"no"	"relative"	"undefined"	"undefined"	"0"	"2"	"2"	"0"	"0"	"0"	"2"	"0"	"0"	"2"	"0"	"0"	"0"	"0"	"0"	"0"	"0"	"0"	"2"	"4"	"0"	"0"	"0"	"0"	"0"	"2"	"982"	"588"	"02/21/18 14:40:24"	"Executes Python code"	"yes"	""	"lineup_liveMEN_W.osexp"	"C:\Users\Laptop10\Desktop\Wednesday 2102"	"no"	"mono"	"no"	"24"	"no"	"black"	"no"	"Continue"	"yes"	"768"	"No"	"no"	"no"	"no"	"legacy"	"2"	"0"	"2"	"0"	"C:/Users/Laptop10/Desktop/Wednesday 2102/subject-65.csv"	"3"	"xpyriment"	"Jazzy James"	"3.1.4"	"0"	"1"	"1"	"10762"	"10762"	"2"	"legacy"	"1024"	"2"	"48000"	"-16"	"experiment"	"65"	"odd"	"legacy"	NA	NA	"100457"	NA	NA	NA	NA	NA	"1716"	"98371"	"1718"	NA	NA	"1722"	"1722"	"40674"	"40674"	"40656"	"87609"	"100457"	NA	NA	NA	NA	NA	"87608"	"lineup1"	"0"	"0"	"0"	"no"	"no"	"1366"
"43"	""	"undefined"	"undefined"	"undefined"	"undefined"	"white"	"no"	"xpyriment"	"legacy"	"legacy"	"0"	"no"	"relative"	"undefined"	"undefined"	"0"	"3"	"3"	"0"	"0"	"0"	"3"	"0"	"0"	"3"	"0"	"0"	"0"	"0"	"0"	"0"	"0"	"0"	"3"	"5"	"0"	"0"	"0"	"0"	"0"	"3"	"501"	"267"	"02/21/18 14:40:24"	"Executes Python code"	"yes"	""	"lineup_liveMEN_W.osexp"	"C:\Users\Laptop10\Desktop\Wednesday 2102"	"no"	"mono"	"no"	"24"	"no"	"black"	"no"	"Continue"	"yes"	"768"	"No"	"no"	"no"	"no"	"legacy"	"3"	"0"	"3"	"0"	"C:/Users/Laptop10/Desktop/Wednesday 2102/subject-65.csv"	"4"	"xpyriment"	"Jazzy James"	"3.1.4"	"0"	"1"	"1"	"6319"	"6319"	"2"	"legacy"	"1024"	"2"	"48000"	"-16"	"experiment"	"65"	"odd"	"legacy"	NA	NA	"110146"	NA	NA	NA	NA	NA	"1716"	"106907"	"1718"	NA	NA	"1722"	"1722"	"40674"	"40674"	"40656"	"100587"	"110146"	NA	NA	NA	NA	NA	"100586"	"lineup1"	"0"	"0"	"0"	"no"	"no"	"1366"
"44"	""	"undefined"	"undefined"	"undefined"	"undefined"	"white"	"no"	"xpyriment"	"legacy"	"legacy"	"0"	"no"	"relative"	"undefined"	"undefined"	"0"	"4"	"4"	"0"	"0"	"0"	"4"	"0"	"0"	"4"	"0"	"0"	"0"	"0"	"0"	"0"	"0"	"0"	"4"	"6"	"0"	"0"	"0"	"0"	"0"	"4"	"598"	"550"	"02/21/18 14:40:24"	"Executes Python code"	"yes"	""	"lineup_liveMEN_W.osexp"	"C:\Users\Laptop10\Desktop\Wednesday 2102"	"no"	"mono"	"no"	"24"	"no"	"black"	"no"	"Continue"	"yes"	"768"	"No"	"no"	"no"	"no"	"legacy"	"4"	"0"	"4"	"0"	"C:/Users/Laptop10/Desktop/Wednesday 2102/subject-65.csv"	"5"	"xpyriment"	"Jazzy James"	"3.1.4"	"0"	"1"	"1"	"6084"	"6084"	"2"	"legacy"	"1024"	"2"	"48000"	"-16"	"experiment"	"65"	"odd"	"legacy"	NA	NA	"118603"	NA	NA	NA	NA	NA	"1716"	"116363"	"1718"	NA	NA	"1722"	"1722"	"40674"	"40674"	"40656"	"110279"	"118603"	NA	NA	NA	NA	NA	"110278"	"lineup1"	"0"	"0"	"0"	"no"	"no"	"1366"
"45"	""	"undefined"	"undefined"	"undefined"	"undefined"	"white"	"no"	"xpyriment"	"legacy"	"legacy"	"0"	"no"	"relative"	"undefined"	"undefined"	"0"	"5"	"5"	"0"	"0"	"0"	"5"	"0"	"0"	"5"	"0"	"0"	"0"	"0"	"0"	"0"	"0"	"0"	"5"	"7"	"0"	"0"	"0"	"0"	"0"	"5"	"591"	"444"	"02/21/18 14:40:24"	"Executes Python code"	"yes"	""	"lineup_liveMEN_W.osexp"	"C:\Users\Laptop10\Desktop\Wednesday 2102"	"no"	"mono"	"no"	"24"	"no"	"black"	"no"	"Continue"	"yes"	"768"	"No"	"no"	"no"	"no"	"legacy"	"5"	"0"	"5"	"0"	"C:/Users/Laptop10/Desktop/Wednesday 2102/subject-65.csv"	"6"	"xpyriment"	"Jazzy James"	"3.1.4"	"0"	"1"	"1"	"5412"	"5412"	"2"	"legacy"	"1024"	"2"	"48000"	"-16"	"experiment"	"65"	"odd"	"legacy"	NA	NA	"126706"	NA	NA	NA	NA	NA	"1716"	"124147"	"1718"	NA	NA	"1722"	"1722"	"40674"	"40674"	"40656"	"118734"	"126707"	NA	NA	NA	NA	NA	"118733"	"lineup1"	"0"	"0"	"0"	"no"	"no"	"1366"
"46"	""	"undefined"	"undefined"	"undefined"	"undefined"	"white"	"no"	"xpyriment"	"legacy"	"legacy"	"0"	"no"	"relative"	"undefined"	"undefined"	"0"	"5"	"5"	"0"	"0"	"0"	"5"	"0"	"0"	"5"	"0"	"0"	"0"	"0"	"0"	"0"	"0"	"0"	"5"	"7"	"0"	"0"	"0"	"0"	"0"	"5"	"591"	"444"	"02/21/18 14:40:24"	"Executes Python code"	"yes"	""	"lineup_liveMEN_W.osexp"	"C:\Users\Laptop10\Desktop\Wednesday 2102"	"no"	"mono"	"no"	"24"	"no"	"black"	"no"	"Continue"	"yes"	"768"	"No"	"No"	"no"	"No"	"legacy"	"5"	"0"	"5"	"0"	"C:/Users/Laptop10/Desktop/Wednesday 2102/subject-65.csv"	"6"	"xpyriment"	"Jazzy James"	"3.1.4"	"0"	"1"	"1"	"5412"	"5412"	"2"	"legacy"	"1024"	"2"	"48000"	"-16"	"experiment"	"65"	"odd"	"legacy"	"136739"	NA	"126706"	"136738"	NA	"156720"	NA	NA	"1716"	"124147"	"1718"	NA	NA	"1722"	"1722"	"40674"	"40674"	"40656"	"118734"	"156720"	"126740"	NA	"140373"	NA	NA	"118733"	"lineup1"	"0"	"0"	"0"	"no"	"no"	"1366"
"47"	""	"undefined"	"undefined"	"undefined"	"undefined"	"white"	"no"	"xpyriment"	"legacy"	"legacy"	"0"	"no"	"relative"	"undefined"	"undefined"	"0"	"5"	"5"	"0"	"0"	"0"	"5"	"0"	"0"	"5"	"0"	"0"	"0"	"0"	"0"	"0"	"0"	"0"	"5"	"7"	"0"	"0"	"0"	"0"	"0"	"5"	"591"	"444"	"02/21/18 14:40:24"	"Executes Python code"	"yes"	""	"lineup_liveMEN_W.osexp"	"C:\Users\Laptop10\Desktop\Wednesday 2102"	"no"	"mono"	"no"	"24"	"no"	"black"	"no"	"Click to end"	"yes"	"768"	"No"	"No"	"no"	"No"	"legacy"	"5"	"0"	"5"	"0"	"C:/Users/Laptop10/Desktop/Wednesday 2102/subject-65.csv"	"6"	"xpyriment"	"Jazzy James"	"3.1.4"	"0"	"1"	"1"	"5412"	"5412"	"2"	"legacy"	"1024"	"2"	"48000"	"-16"	"experiment"	"65"	"odd"	"legacy"	"136739"	NA	"126706"	"136738"	NA	"156720"	NA	"156751"	"1716"	"124147"	"1718"	NA	NA	"1722"	"1722"	"40674"	"40674"	"40656"	"118734"	"159109"	"126740"	NA	"140373"	NA	NA	"118733"	"lineup1"	"0"	"0"	"0"	"no"	"no"	"1366"
"48"	""	"undefined"	"undefined"	"undefined"	"undefined"	"white"	"no"	"xpyriment"	"legacy"	"legacy"	"0"	"no"	"relative"	"undefined"	"undefined"	"0"	"0"	"0"	"0"	"0"	"0"	"0"	"0"	"0"	"0"	"0"	"0"	"0"	"0"	"0"	"0"	"0"	"0"	"0"	"2"	"0"	"0"	"0"	"0"	"0"	"0"	"1319"	"242"	"02/21/18 14:47:25"	"Executes Python code"	"yes"	""	"lineup_liveMEN_W.osexp"	"C:\Users\Laptop10\Desktop\Wednesday 2102"	"no"	"mono"	"no"	"24"	"no"	"black"	"no"	"Continue"	"yes"	"768"	"Not sure"	"no"	"no"	"no"	"legacy"	"0"	"0"	"0"	"0"	"C:/Users/Laptop10/Desktop/Wednesday 2102/subject-66.csv"	"1"	"xpyriment"	"Jazzy James"	"3.1.4"	"0"	"1"	"1"	"10988"	"10988"	"2"	"legacy"	"1024"	"2"	"48000"	"-16"	"experiment"	"66"	"even"	"legacy"	NA	NA	"73889"	NA	NA	NA	NA	NA	"1574"	"68567"	"1575"	NA	NA	"1579"	"1579"	"57480"	"57480"	"57462"	"57579"	"73889"	NA	NA	NA	NA	NA	"57578"	"lineup1"	"0"	"0"	"0"	"no"	"no"	"1366"
"49"	""	"undefined"	"undefined"	"undefined"	"undefined"	"white"	"no"	"xpyriment"	"legacy"	"legacy"	"0"	"no"	"relative"	"undefined"	"undefined"	"0"	"1"	"1"	"0"	"0"	"0"	"1"	"0"	"0"	"1"	"0"	"0"	"0"	"0"	"0"	"0"	"0"	"0"	"1"	"3"	"0"	"0"	"0"	"0"	"0"	"1"	"572"	"582"	"02/21/18 14:47:25"	"Executes Python code"	"yes"	""	"lineup_liveMEN_W.osexp"	"C:\Users\Laptop10\Desktop\Wednesday 2102"	"no"	"mono"	"no"	"24"	"no"	"black"	"no"	"Continue"	"yes"	"768"	"No"	"no"	"no"	"no"	"legacy"	"1"	"0"	"1"	"0"	"C:/Users/Laptop10/Desktop/Wednesday 2102/subject-66.csv"	"2"	"xpyriment"	"Jazzy James"	"3.1.4"	"0"	"1"	"1"	"17195"	"17195"	"2"	"legacy"	"1024"	"2"	"48000"	"-16"	"experiment"	"66"	"even"	"legacy"	NA	NA	"94593"	NA	NA	NA	NA	NA	"1574"	"91216"	"1575"	NA	NA	"1579"	"1579"	"57480"	"57480"	"57462"	"74021"	"94593"	NA	NA	NA	NA	NA	"74020"	"lineup1"	"0"	"0"	"0"	"no"	"no"	"1366"
"50"	""	"undefined"	"undefined"	"undefined"	"undefined"	"white"	"no"	"xpyriment"	"legacy"	"legacy"	"0"	"no"	"relative"	"undefined"	"undefined"	"0"	"2"	"2"	"0"	"0"	"0"	"2"	"0"	"0"	"2"	"0"	"0"	"0"	"0"	"0"	"0"	"0"	"0"	"2"	"4"	"0"	"0"	"0"	"0"	"0"	"2"	"641"	"765"	"02/21/18 14:47:25"	"Executes Python code"	"yes"	""	"lineup_liveMEN_W.osexp"	"C:\Users\Laptop10\Desktop\Wednesday 2102"	"no"	"mono"	"no"	"24"	"no"	"black"	"no"	"Continue"	"yes"	"768"	"No"	"no"	"no"	"no"	"legacy"	"2"	"0"	"2"	"0"	"C:/Users/Laptop10/Desktop/Wednesday 2102/subject-66.csv"	"3"	"xpyriment"	"Jazzy James"	"3.1.4"	"0"	"1"	"1"	"9004"	"9004"	"2"	"legacy"	"1024"	"2"	"48000"	"-16"	"experiment"	"66"	"even"	"legacy"	NA	NA	"106294"	NA	NA	NA	NA	NA	"1574"	"103727"	"1575"	NA	NA	"1579"	"1579"	"57480"	"57480"	"57462"	"94723"	"106294"	NA	NA	NA	NA	NA	"94722"	"lineup1"	"0"	"0"	"0"	"no"	"no"	"1366"
"51"	""	"undefined"	"undefined"	"undefined"	"undefined"	"white"	"no"	"xpyriment"	"legacy"	"legacy"	"0"	"no"	"relative"	"undefined"	"undefined"	"0"	"3"	"3"	"0"	"0"	"0"	"3"	"0"	"0"	"3"	"0"	"0"	"0"	"0"	"0"	"0"	"0"	"0"	"3"	"5"	"0"	"0"	"0"	"0"	"0"	"3"	"237"	"767"	"02/21/18 14:47:25"	"Executes Python code"	"yes"	""	"lineup_liveMEN_W.osexp"	"C:\Users\Laptop10\Desktop\Wednesday 2102"	"no"	"mono"	"no"	"24"	"no"	"black"	"no"	"Continue"	"yes"	"768"	"No"	"no"	"no"	"no"	"legacy"	"3"	"0"	"3"	"0"	"C:/Users/Laptop10/Desktop/Wednesday 2102/subject-66.csv"	"4"	"xpyriment"	"Jazzy James"	"3.1.4"	"0"	"1"	"1"	"7328"	"7328"	"2"	"legacy"	"1024"	"2"	"48000"	"-16"	"experiment"	"66"	"even"	"legacy"	NA	NA	"116804"	NA	NA	NA	NA	NA	"1574"	"113752"	"1575"	NA	NA	"1579"	"1579"	"57480"	"57480"	"57462"	"106423"	"116805"	NA	NA	NA	NA	NA	"106422"	"lineup1"	"0"	"0"	"0"	"no"	"no"	"1366"
"52"	""	"undefined"	"undefined"	"undefined"	"undefined"	"white"	"no"	"xpyriment"	"legacy"	"legacy"	"0"	"no"	"relative"	"undefined"	"undefined"	"0"	"4"	"4"	"0"	"0"	"0"	"4"	"0"	"0"	"4"	"0"	"0"	"0"	"0"	"0"	"0"	"0"	"0"	"4"	"6"	"0"	"0"	"0"	"0"	"0"	"4"	"329"	"767"	"02/21/18 14:47:25"	"Executes Python code"	"yes"	""	"lineup_liveMEN_W.osexp"	"C:\Users\Laptop10\Desktop\Wednesday 2102"	"no"	"mono"	"no"	"24"	"no"	"black"	"no"	"Continue"	"yes"	"768"	"No"	"no"	"no"	"no"	"legacy"	"4"	"0"	"4"	"0"	"C:/Users/Laptop10/Desktop/Wednesday 2102/subject-66.csv"	"5"	"xpyriment"	"Jazzy James"	"3.1.4"	"0"	"1"	"1"	"8048"	"8048"	"2"	"legacy"	"1024"	"2"	"48000"	"-16"	"experiment"	"66"	"even"	"legacy"	NA	NA	"127863"	NA	NA	NA	NA	NA	"1574"	"124983"	"1575"	NA	NA	"1579"	"1579"	"57480"	"57480"	"57462"	"116934"	"127863"	NA	NA	NA	NA	NA	"116934"	"lineup1"	"0"	"0"	"0"	"no"	"no"	"1366"
"53"	""	"undefined"	"undefined"	"undefined"	"undefined"	"white"	"no"	"xpyriment"	"legacy"	"legacy"	"0"	"no"	"relative"	"undefined"	"undefined"	"0"	"5"	"5"	"0"	"0"	"0"	"5"	"0"	"0"	"5"	"0"	"0"	"0"	"0"	"0"	"0"	"0"	"0"	"5"	"7"	"0"	"0"	"0"	"0"	"0"	"5"	"226"	"767"	"02/21/18 14:47:25"	"Executes Python code"	"yes"	""	"lineup_liveMEN_W.osexp"	"C:\Users\Laptop10\Desktop\Wednesday 2102"	"no"	"mono"	"no"	"24"	"no"	"black"	"no"	"Continue"	"yes"	"768"	"No"	"no"	"no"	"no"	"legacy"	"5"	"0"	"5"	"0"	"C:/Users/Laptop10/Desktop/Wednesday 2102/subject-66.csv"	"6"	"xpyriment"	"Jazzy James"	"3.1.4"	"0"	"1"	"1"	"3951"	"3951"	"2"	"legacy"	"1024"	"2"	"48000"	"-16"	"experiment"	"66"	"even"	"legacy"	NA	NA	"134353"	NA	NA	NA	NA	NA	"1574"	"131943"	"1575"	NA	NA	"1579"	"1579"	"57480"	"57480"	"57462"	"127992"	"134353"	NA	NA	NA	NA	NA	"127991"	"lineup1"	"0"	"0"	"0"	"no"	"no"	"1366"
"54"	""	"undefined"	"undefined"	"undefined"	"undefined"	"white"	"no"	"xpyriment"	"legacy"	"legacy"	"0"	"no"	"relative"	"undefined"	"undefined"	"0"	"5"	"5"	"0"	"0"	"0"	"5"	"0"	"0"	"5"	"0"	"0"	"0"	"0"	"0"	"0"	"0"	"0"	"5"	"7"	"0"	"0"	"0"	"0"	"0"	"5"	"226"	"767"	"02/21/18 14:47:25"	"Executes Python code"	"yes"	""	"lineup_liveMEN_W.osexp"	"C:\Users\Laptop10\Desktop\Wednesday 2102"	"no"	"mono"	"no"	"24"	"no"	"black"	"no"	"Continue"	"yes"	"768"	"No"	"No"	"no"	"No"	"legacy"	"5"	"0"	"5"	"0"	"C:/Users/Laptop10/Desktop/Wednesday 2102/subject-66.csv"	"6"	"xpyriment"	"Jazzy James"	"3.1.4"	"0"	"1"	"1"	"3951"	"3951"	"2"	"legacy"	"1024"	"2"	"48000"	"-16"	"experiment"	"66"	"even"	"legacy"	"139302"	NA	"134353"	"139302"	NA	"159361"	NA	NA	"1574"	"131943"	"1575"	NA	NA	"1579"	"1579"	"57480"	"57480"	"57462"	"127992"	"159361"	"134387"	NA	"142991"	NA	NA	"127991"	"lineup1"	"0"	"0"	"0"	"no"	"no"	"1366"
"55"	""	"undefined"	"undefined"	"undefined"	"undefined"	"white"	"no"	"xpyriment"	"legacy"	"legacy"	"0"	"no"	"relative"	"undefined"	"undefined"	"0"	"5"	"5"	"0"	"0"	"0"	"5"	"0"	"0"	"5"	"0"	"0"	"0"	"0"	"0"	"0"	"0"	"0"	"5"	"7"	"0"	"0"	"0"	"0"	"0"	"5"	"226"	"767"	"02/21/18 14:47:25"	"Executes Python code"	"yes"	""	"lineup_liveMEN_W.osexp"	"C:\Users\Laptop10\Desktop\Wednesday 2102"	"no"	"mono"	"no"	"24"	"no"	"black"	"no"	"Click to end"	"yes"	"768"	"No"	"No"	"no"	"No"	"legacy"	"5"	"0"	"5"	"0"	"C:/Users/Laptop10/Desktop/Wednesday 2102/subject-66.csv"	"6"	"xpyriment"	"Jazzy James"	"3.1.4"	"0"	"1"	"1"	"3951"	"3951"	"2"	"legacy"	"1024"	"2"	"48000"	"-16"	"experiment"	"66"	"even"	"legacy"	"139302"	NA	"134353"	"139302"	NA	"159361"	NA	"159394"	"1574"	"131943"	"1575"	NA	NA	"1579"	"1579"	"57480"	"57480"	"57462"	"127992"	"160840"	"134387"	NA	"142991"	NA	NA	"127991"	"lineup1"	"0"	"0"	"0"	"no"	"no"	"1366"
"56"	""	"undefined"	"undefined"	"undefined"	"undefined"	"white"	"no"	"xpyriment"	"legacy"	"legacy"	"0"	"no"	"relative"	"undefined"	"undefined"	"0"	"0"	"0"	"0"	"0"	"0"	"0"	"0"	"0"	"0"	"0"	"0"	"0"	"0"	"0"	"0"	"0"	"0"	"0"	"2"	"0"	"0"	"0"	"0"	"0"	"0"	"1134"	"515"	"02/21/18 15:25:53"	"Executes Python code"	"yes"	""	"lineup_liveMEN_W.osexp"	"C:\Users\Laptop10\Desktop\Wednesday 2102"	"no"	"mono"	"no"	"24"	"no"	"black"	"no"	"Continue"	"yes"	"768"	"No"	"no"	"no"	"no"	"legacy"	"0"	"0"	"0"	"0"	"C:/Users/Laptop10/Desktop/Wednesday 2102/subject-67.csv"	"1"	"xpyriment"	"Jazzy James"	"3.1.4"	"0"	"1"	"1"	"16439"	"16439"	"2"	"legacy"	"1024"	"2"	"48000"	"-16"	"experiment"	"67"	"odd"	"legacy"	NA	NA	"104736"	NA	NA	NA	NA	NA	"1614"	"93794"	"1614"	NA	NA	"1618"	"1618"	"77251"	"77251"	"77231"	"77355"	"104736"	NA	NA	NA	NA	NA	"77354"	"lineup1"	"0"	"0"	"0"	"no"	"no"	"1366"
"57"	""	"undefined"	"undefined"	"undefined"	"undefined"	"white"	"no"	"xpyriment"	"legacy"	"legacy"	"0"	"no"	"relative"	"undefined"	"undefined"	"0"	"1"	"1"	"0"	"0"	"0"	"1"	"0"	"0"	"1"	"0"	"0"	"0"	"0"	"0"	"0"	"0"	"0"	"1"	"3"	"0"	"0"	"0"	"0"	"0"	"1"	"887"	"460"	"02/21/18 15:25:53"	"Executes Python code"	"yes"	""	"lineup_liveMEN_W.osexp"	"C:\Users\Laptop10\Desktop\Wednesday 2102"	"no"	"mono"	"no"	"24"	"no"	"black"	"no"	"Continue"	"yes"	"768"	"No"	"no"	"no"	"no"	"legacy"	"1"	"0"	"1"	"0"	"C:/Users/Laptop10/Desktop/Wednesday 2102/subject-67.csv"	"2"	"xpyriment"	"Jazzy James"	"3.1.4"	"0"	"1"	"1"	"4732"	"4732"	"2"	"legacy"	"1024"	"2"	"48000"	"-16"	"experiment"	"67"	"odd"	"legacy"	NA	NA	"112931"	NA	NA	NA	NA	NA	"1614"	"109602"	"1614"	NA	NA	"1618"	"1618"	"77251"	"77251"	"77231"	"104869"	"112931"	NA	NA	NA	NA	NA	"104868"	"lineup1"	"0"	"0"	"0"	"no"	"no"	"1366"
"58"	""	"undefined"	"undefined"	"undefined"	"undefined"	"white"	"no"	"xpyriment"	"legacy"	"legacy"	"0"	"no"	"relative"	"undefined"	"undefined"	"0"	"2"	"2"	"0"	"0"	"0"	"2"	"0"	"0"	"2"	"0"	"0"	"0"	"0"	"0"	"0"	"0"	"0"	"2"	"4"	"0"	"0"	"0"	"0"	"0"	"2"	"501"	"717"	"02/21/18 15:25:53"	"Executes Python code"	"yes"	""	"lineup_liveMEN_W.osexp"	"C:\Users\Laptop10\Desktop\Wednesday 2102"	"no"	"mono"	"no"	"24"	"no"	"black"	"no"	"Continue"	"yes"	"768"	"No"	"no"	"no"	"no"	"legacy"	"2"	"0"	"2"	"0"	"C:/Users/Laptop10/Desktop/Wednesday 2102/subject-67.csv"	"3"	"xpyriment"	"Jazzy James"	"3.1.4"	"0"	"1"	"1"	"12534"	"12534"	"2"	"legacy"	"1024"	"2"	"48000"	"-16"	"experiment"	"67"	"odd"	"legacy"	NA	NA	"128707"	NA	NA	NA	NA	NA	"1614"	"125610"	"1614"	NA	NA	"1618"	"1618"	"77251"	"77251"	"77231"	"113075"	"128707"	NA	NA	NA	NA	NA	"113073"	"lineup1"	"0"	"0"	"0"	"no"	"no"	"1366"
"59"	""	"undefined"	"undefined"	"undefined"	"undefined"	"white"	"no"	"xpyriment"	"legacy"	"legacy"	"0"	"20"	"relative"	"undefined"	"undefined"	"0"	"3"	"3"	"0"	"0"	"0"	"3"	"0"	"0"	"3"	"0"	"0"	"0"	"0"	"0"	"0"	"0"	"0"	"3"	"5"	"0"	"0"	"0"	"0"	"0"	"3"	"338"	"683"	"02/21/18 15:25:53"	"Executes Python code"	"yes"	""	"lineup_liveMEN_W.osexp"	"C:\Users\Laptop10\Desktop\Wednesday 2102"	"no"	"mono"	"no"	"24"	"no"	"black"	"no"	"Continue"	"yes"	"768"	"Yes"	"no"	"no"	"no"	"legacy"	"3"	"0"	"3"	"0"	"C:/Users/Laptop10/Desktop/Wednesday 2102/subject-67.csv"	"4"	"xpyriment"	"Jazzy James"	"3.1.4"	"0"	"1"	"1"	"10137"	"10137"	"2"	"legacy"	"1024"	"2"	"48000"	"-16"	"experiment"	"67"	"odd"	"legacy"	NA	"166641"	"142190"	NA	NA	NA	"142190"	NA	"1614"	"138970"	"1614"	NA	NA	"1618"	"1618"	"77251"	"77251"	"77231"	"128833"	"166641"	NA	NA	NA	NA	NA	"128832"	"lineup1"	"0"	"0"	"0"	"no"	"no"	"1366"
"60"	""	"undefined"	"undefined"	"undefined"	"undefined"	"white"	"no"	"xpyriment"	"legacy"	"legacy"	"0"	"70"	"relative"	"undefined"	"undefined"	"0"	"4"	"4"	"0"	"0"	"0"	"4"	"0"	"0"	"4"	"0"	"0"	"0"	"0"	"0"	"0"	"0"	"0"	"4"	"6"	"0"	"0"	"0"	"0"	"0"	"4"	"929"	"657"	"02/21/18 15:25:53"	"Executes Python code"	"yes"	""	"lineup_liveMEN_W.osexp"	"C:\Users\Laptop10\Desktop\Wednesday 2102"	"no"	"mono"	"no"	"24"	"no"	"black"	"no"	"Continue"	"yes"	"768"	"Yes"	"no"	"no"	"no"	"legacy"	"4"	"0"	"4"	"0"	"C:/Users/Laptop10/Desktop/Wednesday 2102/subject-67.csv"	"5"	"xpyriment"	"Jazzy James"	"3.1.4"	"0"	"1"	"1"	"6929"	"6929"	"2"	"legacy"	"1024"	"2"	"48000"	"-16"	"experiment"	"67"	"odd"	"legacy"	NA	"181798"	"176947"	NA	NA	NA	"176947"	NA	"1614"	"173722"	"1614"	NA	NA	"1618"	"1618"	"77251"	"77251"	"77231"	"166792"	"181798"	NA	NA	NA	NA	NA	"166790"	"lineup1"	"0"	"0"	"0"	"no"	"no"	"1366"
"61"	""	"undefined"	"undefined"	"undefined"	"undefined"	"white"	"no"	"xpyriment"	"legacy"	"legacy"	"0"	"no"	"relative"	"undefined"	"undefined"	"0"	"5"	"5"	"0"	"0"	"0"	"5"	"0"	"0"	"5"	"0"	"0"	"0"	"0"	"0"	"0"	"0"	"0"	"5"	"7"	"0"	"0"	"0"	"0"	"0"	"5"	"996"	"715"	"02/21/18 15:25:53"	"Executes Python code"	"yes"	""	"lineup_liveMEN_W.osexp"	"C:\Users\Laptop10\Desktop\Wednesday 2102"	"no"	"mono"	"no"	"24"	"no"	"black"	"no"	"Continue"	"yes"	"768"	"No"	"no"	"no"	"no"	"legacy"	"5"	"0"	"5"	"0"	"C:/Users/Laptop10/Desktop/Wednesday 2102/subject-67.csv"	"6"	"xpyriment"	"Jazzy James"	"3.1.4"	"0"	"1"	"1"	"10739"	"10739"	"2"	"legacy"	"1024"	"2"	"48000"	"-16"	"experiment"	"67"	"odd"	"legacy"	NA	"181798"	"196565"	NA	NA	NA	"176947"	NA	"1614"	"192674"	"1614"	NA	NA	"1618"	"1618"	"77251"	"77251"	"77231"	"181934"	"196565"	NA	NA	NA	NA	NA	"181933"	"lineup1"	"0"	"0"	"0"	"no"	"no"	"1366"
"62"	""	"undefined"	"undefined"	"undefined"	"undefined"	"white"	"no"	"xpyriment"	"legacy"	"legacy"	"0"	"no"	"relative"	"undefined"	"undefined"	"1"	"6"	"6"	"1"	"1"	"1"	"6"	"0"	"0"	"6"	"0"	"1"	"1"	"0"	"0"	"1"	"1"	"0"	"6"	"9"	"1"	"1"	"1"	"1"	"1"	"6"	"889"	"596"	"02/21/18 15:25:53"	"Executes Python code"	"yes"	""	"lineup_liveMEN_W.osexp"	"C:\Users\Laptop10\Desktop\Wednesday 2102"	"no"	"mono"	"no"	"24"	"no"	"black"	"no"	"Continue"	"yes"	"768"	"Not sure"	"no"	"no"	"no"	"legacy"	"0"	"0"	"0"	"0"	"C:/Users/Laptop10/Desktop/Wednesday 2102/subject-67.csv"	"1"	"xpyriment"	"Jazzy James"	"3.1.4"	"0"	"1"	"1"	"19798"	"19798"	"2"	"legacy"	"1024"	"2"	"48000"	"-16"	"experiment"	"67"	"odd"	"legacy"	NA	"181798"	"249319"	"202783"	"206884"	NA	"176947"	NA	"1614"	"238730"	"1614"	"206884"	NA	"1618"	"1618"	"218834"	"218834"	"77231"	"218931"	"249319"	"196602"	"202783"	NA	NA	"218816"	"218930"	"lineup1"	"0"	"0"	"0"	"no"	"no"	"1366"
"63"	""	"undefined"	"undefined"	"undefined"	"undefined"	"white"	"no"	"xpyriment"	"legacy"	"legacy"	"0"	"no"	"relative"	"undefined"	"undefined"	"1"	"7"	"7"	"1"	"1"	"1"	"7"	"0"	"0"	"7"	"0"	"1"	"1"	"0"	"0"	"1"	"1"	"0"	"7"	"10"	"1"	"1"	"1"	"1"	"1"	"7"	"778"	"721"	"02/21/18 15:25:53"	"Executes Python code"	"yes"	""	"lineup_liveMEN_W.osexp"	"C:\Users\Laptop10\Desktop\Wednesday 2102"	"no"	"mono"	"no"	"24"	"no"	"black"	"no"	"Continue"	"yes"	"768"	"No"	"no"	"no"	"no"	"legacy"	"1"	"0"	"1"	"0"	"C:/Users/Laptop10/Desktop/Wednesday 2102/subject-67.csv"	"2"	"xpyriment"	"Jazzy James"	"3.1.4"	"0"	"1"	"1"	"9119"	"9119"	"2"	"legacy"	"1024"	"2"	"48000"	"-16"	"experiment"	"67"	"odd"	"legacy"	NA	"181798"	"261290"	"202783"	"206884"	NA	"176947"	NA	"1614"	"258577"	"1614"	"206884"	NA	"1618"	"1618"	"218834"	"218834"	"77231"	"249458"	"261291"	"196602"	"202783"	NA	NA	"218816"	"249457"	"lineup1"	"0"	"0"	"0"	"no"	"no"	"1366"
"64"	""	"undefined"	"undefined"	"undefined"	"undefined"	"white"	"no"	"xpyriment"	"legacy"	"legacy"	"0"	"no"	"relative"	"undefined"	"undefined"	"1"	"8"	"8"	"1"	"1"	"1"	"8"	"0"	"0"	"8"	"0"	"1"	"1"	"0"	"0"	"1"	"1"	"0"	"8"	"11"	"1"	"1"	"1"	"1"	"1"	"8"	"324"	"684"	"02/21/18 15:25:53"	"Executes Python code"	"yes"	""	"lineup_liveMEN_W.osexp"	"C:\Users\Laptop10\Desktop\Wednesday 2102"	"no"	"mono"	"no"	"24"	"no"	"black"	"no"	"Continue"	"yes"	"768"	"No"	"no"	"no"	"no"	"legacy"	"2"	"0"	"2"	"0"	"C:/Users/Laptop10/Desktop/Wednesday 2102/subject-67.csv"	"3"	"xpyriment"	"Jazzy James"	"3.1.4"	"0"	"1"	"1"	"12068"	"12068"	"2"	"legacy"	"1024"	"2"	"48000"	"-16"	"experiment"	"67"	"odd"	"legacy"	NA	"181798"	"275878"	"202783"	"206884"	NA	"176947"	NA	"1614"	"273489"	"1614"	"206884"	NA	"1618"	"1618"	"218834"	"218834"	"77231"	"261421"	"275878"	"196602"	"202783"	NA	NA	"218816"	"261420"	"lineup1"	"0"	"0"	"0"	"no"	"no"	"1366"
"65"	""	"undefined"	"undefined"	"undefined"	"undefined"	"white"	"no"	"xpyriment"	"legacy"	"legacy"	"0"	"no"	"relative"	"undefined"	"undefined"	"1"	"9"	"9"	"1"	"1"	"1"	"9"	"0"	"0"	"9"	"0"	"1"	"1"	"0"	"0"	"1"	"1"	"0"	"9"	"12"	"1"	"1"	"1"	"1"	"1"	"9"	"235"	"727"	"02/21/18 15:25:53"	"Executes Python code"	"yes"	""	"lineup_liveMEN_W.osexp"	"C:\Users\Laptop10\Desktop\Wednesday 2102"	"no"	"mono"	"no"	"24"	"no"	"black"	"no"	"Continue"	"yes"	"768"	"No"	"no"	"no"	"no"	"legacy"	"3"	"0"	"3"	"0"	"C:/Users/Laptop10/Desktop/Wednesday 2102/subject-67.csv"	"4"	"xpyriment"	"Jazzy James"	"3.1.4"	"0"	"1"	"1"	"9724"	"9724"	"2"	"legacy"	"1024"	"2"	"48000"	"-16"	"experiment"	"67"	"odd"	"legacy"	NA	"181798"	"288449"	"202783"	"206884"	NA	"176947"	NA	"1614"	"285729"	"1614"	"206884"	NA	"1618"	"1618"	"218834"	"218834"	"77231"	"276004"	"288449"	"196602"	"202783"	NA	NA	"218816"	"276003"	"lineup1"	"0"	"0"	"0"	"no"	"no"	"1366"
"66"	""	"undefined"	"undefined"	"undefined"	"undefined"	"white"	"no"	"xpyriment"	"legacy"	"legacy"	"0"	"60"	"relative"	"undefined"	"undefined"	"1"	"10"	"10"	"1"	"1"	"1"	"10"	"0"	"0"	"10"	"0"	"1"	"1"	"0"	"0"	"1"	"1"	"0"	"10"	"13"	"1"	"1"	"1"	"1"	"1"	"10"	"158"	"577"	"02/21/18 15:25:53"	"Executes Python code"	"yes"	""	"lineup_liveMEN_W.osexp"	"C:\Users\Laptop10\Desktop\Wednesday 2102"	"no"	"mono"	"no"	"24"	"no"	"black"	"no"	"Continue"	"yes"	"768"	"Yes"	"no"	"no"	"no"	"legacy"	"4"	"0"	"4"	"0"	"C:/Users/Laptop10/Desktop/Wednesday 2102/subject-67.csv"	"5"	"xpyriment"	"Jazzy James"	"3.1.4"	"0"	"1"	"1"	"10812"	"10812"	"2"	"legacy"	"1024"	"2"	"48000"	"-16"	"experiment"	"67"	"odd"	"legacy"	NA	"309908"	"303829"	"202783"	"206884"	NA	"303829"	NA	"1614"	"299393"	"1614"	"206884"	NA	"1618"	"1618"	"218834"	"218834"	"77231"	"288580"	"309908"	"196602"	"202783"	NA	NA	"218816"	"288579"	"lineup1"	"0"	"0"	"0"	"no"	"no"	"1366"
"67"	""	"undefined"	"undefined"	"undefined"	"undefined"	"white"	"no"	"xpyriment"	"legacy"	"legacy"	"0"	"no"	"relative"	"undefined"	"undefined"	"1"	"11"	"11"	"1"	"1"	"1"	"11"	"0"	"0"	"11"	"0"	"1"	"1"	"0"	"0"	"1"	"1"	"0"	"11"	"14"	"1"	"1"	"1"	"1"	"1"	"11"	"857"	"655"	"02/21/18 15:25:53"	"Executes Python code"	"yes"	""	"lineup_liveMEN_W.osexp"	"C:\Users\Laptop10\Desktop\Wednesday 2102"	"no"	"mono"	"no"	"24"	"no"	"black"	"no"	"Continue"	"yes"	"768"	"No"	"no"	"no"	"no"	"legacy"	"5"	"0"	"5"	"0"	"C:/Users/Laptop10/Desktop/Wednesday 2102/subject-67.csv"	"6"	"xpyriment"	"Jazzy James"	"3.1.4"	"0"	"1"	"1"	"10339"	"10339"	"2"	"legacy"	"1024"	"2"	"48000"	"-16"	"experiment"	"67"	"odd"	"legacy"	NA	"309908"	"324045"	"202783"	"206884"	NA	"303829"	NA	"1614"	"320376"	"1614"	"206884"	NA	"1618"	"1618"	"218834"	"218834"	"77231"	"310037"	"324045"	"196602"	"202783"	NA	NA	"218816"	"310036"	"lineup1"	"0"	"0"	"0"	"no"	"no"	"1366"
"68"	""	"undefined"	"undefined"	"undefined"	"undefined"	"white"	"no"	"xpyriment"	"legacy"	"legacy"	"0"	"no"	"relative"	"undefined"	"undefined"	"1"	"11"	"11"	"1"	"1"	"1"	"11"	"0"	"0"	"11"	"0"	"1"	"1"	"0"	"0"	"1"	"1"	"0"	"11"	"14"	"1"	"1"	"1"	"1"	"1"	"11"	"857"	"655"	"02/21/18 15:25:53"	"Executes Python code"	"yes"	""	"lineup_liveMEN_W.osexp"	"C:\Users\Laptop10\Desktop\Wednesday 2102"	"no"	"mono"	"no"	"24"	"no"	"black"	"no"	"Continue"	"yes"	"768"	"No"	"Yes"	"One"	"No"	"legacy"	"5"	"0"	"5"	"0"	"C:/Users/Laptop10/Desktop/Wednesday 2102/subject-67.csv"	"6"	"xpyriment"	"Jazzy James"	"3.1.4"	"0"	"1"	"1"	"10339"	"10339"	"2"	"legacy"	"1024"	"2"	"48000"	"-16"	"experiment"	"67"	"odd"	"legacy"	"332101"	"309908"	"324045"	"327997"	"332101"	"351308"	"303829"	NA	"1614"	"320376"	"1614"	"206884"	NA	"1618"	"1618"	"218834"	"218834"	"77231"	"310037"	"351309"	"324082"	"327997"	"334636"	NA	"218816"	"310036"	"lineup1"	"0"	"0"	"0"	"no"	"no"	"1366"
"69"	""	"undefined"	"undefined"	"undefined"	"undefined"	"white"	"no"	"xpyriment"	"legacy"	"legacy"	"0"	"no"	"relative"	"undefined"	"undefined"	"1"	"11"	"11"	"1"	"1"	"1"	"11"	"0"	"0"	"11"	"0"	"1"	"1"	"0"	"0"	"1"	"1"	"0"	"11"	"14"	"1"	"1"	"1"	"1"	"1"	"11"	"857"	"655"	"02/21/18 15:25:53"	"Executes Python code"	"yes"	""	"lineup_liveMEN_W.osexp"	"C:\Users\Laptop10\Desktop\Wednesday 2102"	"no"	"mono"	"no"	"24"	"no"	"black"	"no"	"Continue"	"yes"	"768"	"No"	"Yes"	"One"	"No"	"legacy"	"5"	"0"	"5"	"0"	"C:/Users/Laptop10/Desktop/Wednesday 2102/subject-67.csv"	"6"	"xpyriment"	"Jazzy James"	"3.1.4"	"0"	"1"	"1"	"10339"	"10339"	"2"	"legacy"	"1024"	"2"	"48000"	"-16"	"experiment"	"67"	"odd"	"legacy"	"351339"	"309908"	"324045"	"327997"	"332101"	"354063"	"303829"	NA	"1614"	"320376"	"1614"	"206884"	NA	"1618"	"1618"	"218834"	"218834"	"77231"	"310037"	"354063"	"324082"	"327997"	"352772"	NA	"218816"	"310036"	"lineup1"	"0"	"0"	"0"	"no"	"no"	"1366"
"70"	""	"undefined"	"undefined"	"undefined"	"undefined"	"white"	"no"	"xpyriment"	"legacy"	"legacy"	"0"	"no"	"relative"	"undefined"	"undefined"	"1"	"11"	"11"	"1"	"1"	"1"	"11"	"0"	"0"	"11"	"0"	"1"	"1"	"0"	"0"	"1"	"1"	"0"	"11"	"14"	"1"	"1"	"1"	"1"	"1"	"11"	"857"	"655"	"02/21/18 15:25:53"	"Executes Python code"	"yes"	""	"lineup_liveMEN_W.osexp"	"C:\Users\Laptop10\Desktop\Wednesday 2102"	"no"	"mono"	"no"	"24"	"no"	"black"	"no"	"Click to end"	"yes"	"768"	"No"	"Yes"	"One"	"No"	"legacy"	"5"	"0"	"5"	"0"	"C:/Users/Laptop10/Desktop/Wednesday 2102/subject-67.csv"	"6"	"xpyriment"	"Jazzy James"	"3.1.4"	"0"	"1"	"1"	"10339"	"10339"	"2"	"legacy"	"1024"	"2"	"48000"	"-16"	"experiment"	"67"	"odd"	"legacy"	"351339"	"309908"	"324045"	"327997"	"332101"	"354063"	"303829"	"354093"	"1614"	"320376"	"1614"	"206884"	NA	"1618"	"1618"	"218834"	"218834"	"77231"	"310037"	"355293"	"324082"	"327997"	"352772"	NA	"218816"	"310036"	"lineup1"	"0"	"0"	"0"	"no"	"no"	"1366"
"71"	""	"undefined"	"undefined"	"undefined"	"undefined"	"white"	"no"	"xpyriment"	"legacy"	"legacy"	"0"	"no"	"relative"	"undefined"	"undefined"	"0"	"0"	"0"	"0"	"0"	"0"	"0"	"0"	"0"	"0"	"0"	"0"	"0"	"0"	"0"	"0"	"0"	"0"	"0"	"2"	"0"	"0"	"0"	"0"	"0"	"0"	"824"	"751"	"02/21/18 15:16:35"	"Executes Python code"	"yes"	""	"lineup_liveMEN_W.osexp"	"C:\Users\Laptop10\Desktop\Wednesday 2102"	"no"	"mono"	"no"	"24"	"no"	"black"	"no"	"Continue"	"yes"	"768"	"No"	"no"	"no"	"no"	"legacy"	"0"	"0"	"0"	"0"	"C:/Users/Laptop10/Desktop/Wednesday 2102/subject-68.csv"	"1"	"xpyriment"	"Jazzy James"	"3.1.4"	"0"	"1"	"1"	"8229"	"8229"	"2"	"legacy"	"1024"	"2"	"48000"	"-16"	"experiment"	"68"	"even"	"legacy"	NA	NA	"84426"	NA	NA	NA	NA	NA	"1625"	"75970"	"1627"	NA	NA	"1631"	"1631"	"67649"	"67649"	"67631"	"67740"	"84426"	NA	NA	NA	NA	NA	"67739"	"lineup1"	"0"	"0"	"0"	"no"	"no"	"1366"
"72"	""	"undefined"	"undefined"	"undefined"	"undefined"	"white"	"no"	"xpyriment"	"legacy"	"legacy"	"0"	"no"	"relative"	"undefined"	"undefined"	"0"	"1"	"1"	"0"	"0"	"0"	"1"	"0"	"0"	"1"	"0"	"0"	"0"	"0"	"0"	"0"	"0"	"0"	"1"	"3"	"0"	"0"	"0"	"0"	"0"	"1"	"583"	"263"	"02/21/18 15:16:35"	"Executes Python code"	"yes"	""	"lineup_liveMEN_W.osexp"	"C:\Users\Laptop10\Desktop\Wednesday 2102"	"no"	"mono"	"no"	"24"	"no"	"black"	"no"	"Continue"	"yes"	"768"	"Not sure"	"no"	"no"	"no"	"legacy"	"1"	"0"	"1"	"0"	"C:/Users/Laptop10/Desktop/Wednesday 2102/subject-68.csv"	"2"	"xpyriment"	"Jazzy James"	"3.1.4"	"0"	"1"	"1"	"11806"	"11806"	"2"	"legacy"	"1024"	"2"	"48000"	"-16"	"experiment"	"68"	"even"	"legacy"	NA	NA	"100419"	NA	NA	NA	NA	NA	"1625"	"96369"	"1627"	NA	NA	"1631"	"1631"	"67649"	"67649"	"67631"	"84563"	"100419"	NA	NA	NA	NA	NA	"84562"	"lineup1"	"0"	"0"	"0"	"no"	"no"	"1366"
"73"	""	"undefined"	"undefined"	"undefined"	"undefined"	"white"	"no"	"xpyriment"	"legacy"	"legacy"	"0"	"no"	"relative"	"undefined"	"undefined"	"0"	"2"	"2"	"0"	"0"	"0"	"2"	"0"	"0"	"2"	"0"	"0"	"0"	"0"	"0"	"0"	"0"	"0"	"2"	"4"	"0"	"0"	"0"	"0"	"0"	"2"	"426"	"328"	"02/21/18 15:16:35"	"Executes Python code"	"yes"	""	"lineup_liveMEN_W.osexp"	"C:\Users\Laptop10\Desktop\Wednesday 2102"	"no"	"mono"	"no"	"24"	"no"	"black"	"no"	"Continue"	"yes"	"768"	"No"	"no"	"no"	"no"	"legacy"	"2"	"0"	"2"	"0"	"C:/Users/Laptop10/Desktop/Wednesday 2102/subject-68.csv"	"3"	"xpyriment"	"Jazzy James"	"3.1.4"	"0"	"1"	"1"	"8423"	"8423"	"2"	"legacy"	"1024"	"2"	"48000"	"-16"	"experiment"	"68"	"even"	"legacy"	NA	NA	"112024"	NA	NA	NA	NA	NA	"1625"	"109009"	"1627"	NA	NA	"1631"	"1631"	"67649"	"67649"	"67631"	"100586"	"112024"	NA	NA	NA	NA	NA	"100585"	"lineup1"	"0"	"0"	"0"	"no"	"no"	"1366"
"74"	""	"undefined"	"undefined"	"undefined"	"undefined"	"white"	"no"	"xpyriment"	"legacy"	"legacy"	"0"	"no"	"relative"	"undefined"	"undefined"	"0"	"3"	"3"	"0"	"0"	"0"	"3"	"0"	"0"	"3"	"0"	"0"	"0"	"0"	"0"	"0"	"0"	"0"	"3"	"5"	"0"	"0"	"0"	"0"	"0"	"3"	"165"	"345"	"02/21/18 15:16:35"	"Executes Python code"	"yes"	""	"lineup_liveMEN_W.osexp"	"C:\Users\Laptop10\Desktop\Wednesday 2102"	"no"	"mono"	"no"	"24"	"no"	"black"	"no"	"Continue"	"yes"	"768"	"Not sure"	"no"	"no"	"no"	"legacy"	"3"	"0"	"3"	"0"	"C:/Users/Laptop10/Desktop/Wednesday 2102/subject-68.csv"	"4"	"xpyriment"	"Jazzy James"	"3.1.4"	"0"	"1"	"1"	"14805"	"14805"	"2"	"legacy"	"1024"	"2"	"48000"	"-16"	"experiment"	"68"	"even"	"legacy"	NA	NA	"129970"	NA	NA	NA	NA	NA	"1625"	"126961"	"1627"	NA	NA	"1631"	"1631"	"67649"	"67649"	"67631"	"112156"	"129970"	NA	NA	NA	NA	NA	"112155"	"lineup1"	"0"	"0"	"0"	"no"	"no"	"1366"
"75"	""	"undefined"	"undefined"	"undefined"	"undefined"	"white"	"no"	"xpyriment"	"legacy"	"legacy"	"0"	"no"	"relative"	"undefined"	"undefined"	"0"	"4"	"4"	"0"	"0"	"0"	"4"	"0"	"0"	"4"	"0"	"0"	"0"	"0"	"0"	"0"	"0"	"0"	"4"	"6"	"0"	"0"	"0"	"0"	"0"	"4"	"3"	"124"	"02/21/18 15:16:35"	"Executes Python code"	"yes"	""	"lineup_liveMEN_W.osexp"	"C:\Users\Laptop10\Desktop\Wednesday 2102"	"no"	"mono"	"no"	"24"	"no"	"black"	"no"	"Continue"	"yes"	"768"	"No"	"no"	"no"	"no"	"legacy"	"4"	"0"	"4"	"0"	"C:/Users/Laptop10/Desktop/Wednesday 2102/subject-68.csv"	"5"	"xpyriment"	"Jazzy James"	"3.1.4"	"0"	"1"	"1"	"6028"	"6028"	"2"	"legacy"	"1024"	"2"	"48000"	"-16"	"experiment"	"68"	"even"	"legacy"	NA	NA	"139307"	NA	NA	NA	NA	NA	"1625"	"136130"	"1627"	NA	NA	"1631"	"1631"	"67649"	"67649"	"67631"	"130101"	"139307"	NA	NA	NA	NA	NA	"130099"	"lineup1"	"0"	"0"	"0"	"no"	"no"	"1366"
"76"	""	"undefined"	"undefined"	"undefined"	"undefined"	"white"	"no"	"xpyriment"	"legacy"	"legacy"	"0"	"no"	"relative"	"undefined"	"undefined"	"0"	"5"	"5"	"0"	"0"	"0"	"5"	"0"	"0"	"5"	"0"	"0"	"0"	"0"	"0"	"0"	"0"	"0"	"5"	"7"	"0"	"0"	"0"	"0"	"0"	"5"	"159"	"165"	"02/21/18 15:16:35"	"Executes Python code"	"yes"	""	"lineup_liveMEN_W.osexp"	"C:\Users\Laptop10\Desktop\Wednesday 2102"	"no"	"mono"	"no"	"24"	"no"	"black"	"no"	"Continue"	"yes"	"768"	"No"	"no"	"no"	"no"	"legacy"	"5"	"0"	"5"	"0"	"C:/Users/Laptop10/Desktop/Wednesday 2102/subject-68.csv"	"6"	"xpyriment"	"Jazzy James"	"3.1.4"	"0"	"1"	"1"	"8348"	"8348"	"2"	"legacy"	"1024"	"2"	"48000"	"-16"	"experiment"	"68"	"even"	"legacy"	NA	NA	"152227"	NA	NA	NA	NA	NA	"1625"	"147785"	"1627"	NA	NA	"1631"	"1631"	"67649"	"67649"	"67631"	"139436"	"152227"	NA	NA	NA	NA	NA	"139435"	"lineup1"	"0"	"0"	"0"	"no"	"no"	"1366"
"77"	""	"undefined"	"undefined"	"undefined"	"undefined"	"white"	"no"	"xpyriment"	"legacy"	"legacy"	"0"	"no"	"relative"	"undefined"	"undefined"	"0"	"5"	"5"	"0"	"0"	"0"	"5"	"0"	"0"	"5"	"0"	"0"	"0"	"0"	"0"	"0"	"0"	"0"	"5"	"7"	"0"	"0"	"0"	"0"	"0"	"5"	"159"	"165"	"02/21/18 15:16:35"	"Executes Python code"	"yes"	""	"lineup_liveMEN_W.osexp"	"C:\Users\Laptop10\Desktop\Wednesday 2102"	"no"	"mono"	"no"	"24"	"no"	"black"	"no"	"Continue"	"yes"	"768"	"No"	"No"	"no"	"No"	"legacy"	"5"	"0"	"5"	"0"	"C:/Users/Laptop10/Desktop/Wednesday 2102/subject-68.csv"	"6"	"xpyriment"	"Jazzy James"	"3.1.4"	"0"	"1"	"1"	"8348"	"8348"	"2"	"legacy"	"1024"	"2"	"48000"	"-16"	"experiment"	"68"	"even"	"legacy"	"157203"	NA	"152227"	"157203"	NA	"177813"	NA	NA	"1625"	"147785"	"1627"	NA	NA	"1631"	"1631"	"67649"	"67649"	"67631"	"139436"	"177813"	"152262"	NA	"159385"	NA	NA	"139435"	"lineup1"	"0"	"0"	"0"	"no"	"no"	"1366"
"78"	""	"undefined"	"undefined"	"undefined"	"undefined"	"white"	"no"	"xpyriment"	"legacy"	"legacy"	"0"	"no"	"relative"	"undefined"	"undefined"	"0"	"5"	"5"	"0"	"0"	"0"	"5"	"0"	"0"	"5"	"0"	"0"	"0"	"0"	"0"	"0"	"0"	"0"	"5"	"7"	"0"	"0"	"0"	"0"	"0"	"5"	"159"	"165"	"02/21/18 15:16:35"	"Executes Python code"	"yes"	""	"lineup_liveMEN_W.osexp"	"C:\Users\Laptop10\Desktop\Wednesday 2102"	"no"	"mono"	"no"	"24"	"no"	"black"	"no"	"Click to end"	"yes"	"768"	"No"	"No"	"no"	"No"	"legacy"	"5"	"0"	"5"	"0"	"C:/Users/Laptop10/Desktop/Wednesday 2102/subject-68.csv"	"6"	"xpyriment"	"Jazzy James"	"3.1.4"	"0"	"1"	"1"	"8348"	"8348"	"2"	"legacy"	"1024"	"2"	"48000"	"-16"	"experiment"	"68"	"even"	"legacy"	"157203"	NA	"152227"	"157203"	NA	"177813"	NA	"177844"	"1625"	"147785"	"1627"	NA	NA	"1631"	"1631"	"67649"	"67649"	"67631"	"139436"	"179159"	"152262"	NA	"159385"	NA	NA	"139435"	"lineup1"	"0"	"0"	"0"	"no"	"no"	"1366"
"79"	""	"undefined"	"undefined"	"undefined"	"undefined"	"white"	"no"	"xpyriment"	"legacy"	"legacy"	"0"	"no"	"relative"	"undefined"	"undefined"	"0"	"0"	"0"	"0"	"0"	"0"	"0"	"0"	"0"	"0"	"0"	"0"	"0"	"0"	"0"	"0"	"0"	"0"	"0"	"2"	"0"	"0"	"0"	"0"	"0"	"0"	"1223"	"432"	"02/21/18 15:50:24"	"Executes Python code"	"yes"	""	"lineup_liveMEN_W.osexp"	"C:\Users\Laptop10\Desktop\Wednesday 2102"	"no"	"mono"	"no"	"24"	"no"	"black"	"no"	"Continue"	"yes"	"768"	"No"	"no"	"no"	"no"	"legacy"	"0"	"0"	"0"	"0"	"C:/Users/Laptop10/Desktop/Wednesday 2102/subject-69.csv"	"1"	"xpyriment"	"Jazzy James"	"3.1.4"	"0"	"1"	"1"	"11384"	"11384"	"2"	"legacy"	"1024"	"2"	"48000"	"-16"	"experiment"	"69"	"odd"	"legacy"	NA	NA	"55614"	NA	NA	NA	NA	NA	"1648"	"53149"	"1648"	NA	NA	"1652"	"1652"	"41666"	"41666"	"41649"	"41765"	"55614"	NA	NA	NA	NA	NA	"41764"	"lineup1"	"0"	"0"	"0"	"no"	"no"	"1366"
"80"	""	"undefined"	"undefined"	"undefined"	"undefined"	"white"	"no"	"xpyriment"	"legacy"	"legacy"	"0"	"no"	"relative"	"undefined"	"undefined"	"0"	"1"	"1"	"0"	"0"	"0"	"1"	"0"	"0"	"1"	"0"	"0"	"0"	"0"	"0"	"0"	"0"	"0"	"1"	"3"	"0"	"0"	"0"	"0"	"0"	"1"	"684"	"503"	"02/21/18 15:50:24"	"Executes Python code"	"yes"	""	"lineup_liveMEN_W.osexp"	"C:\Users\Laptop10\Desktop\Wednesday 2102"	"no"	"mono"	"no"	"24"	"no"	"black"	"no"	"Continue"	"yes"	"768"	"No"	"no"	"no"	"no"	"legacy"	"1"	"0"	"1"	"0"	"C:/Users/Laptop10/Desktop/Wednesday 2102/subject-69.csv"	"2"	"xpyriment"	"Jazzy James"	"3.1.4"	"0"	"1"	"1"	"6434"	"6434"	"2"	"legacy"	"1024"	"2"	"48000"	"-16"	"experiment"	"69"	"odd"	"legacy"	NA	NA	"64542"	NA	NA	NA	NA	NA	"1648"	"62180"	"1648"	NA	NA	"1652"	"1652"	"41666"	"41666"	"41649"	"55746"	"64543"	NA	NA	NA	NA	NA	"55744"	"lineup1"	"0"	"0"	"0"	"no"	"no"	"1366"
"81"	""	"undefined"	"undefined"	"undefined"	"undefined"	"white"	"no"	"xpyriment"	"legacy"	"legacy"	"0"	"50"	"relative"	"undefined"	"undefined"	"0"	"2"	"2"	"0"	"0"	"0"	"2"	"0"	"0"	"2"	"0"	"0"	"0"	"0"	"0"	"0"	"0"	"0"	"2"	"4"	"0"	"0"	"0"	"0"	"0"	"2"	"663"	"767"	"02/21/18 15:50:24"	"Executes Python code"	"yes"	""	"lineup_liveMEN_W.osexp"	"C:\Users\Laptop10\Desktop\Wednesday 2102"	"no"	"mono"	"no"	"24"	"no"	"black"	"no"	"Continue"	"yes"	"768"	"Yes"	"no"	"no"	"no"	"legacy"	"2"	"0"	"2"	"0"	"C:/Users/Laptop10/Desktop/Wednesday 2102/subject-69.csv"	"3"	"xpyriment"	"Jazzy James"	"3.1.4"	"0"	"1"	"1"	"8020"	"8020"	"2"	"legacy"	"1024"	"2"	"48000"	"-16"	"experiment"	"69"	"odd"	"legacy"	NA	"79612"	"75436"	NA	NA	NA	"75436"	NA	"1648"	"72693"	"1648"	NA	NA	"1652"	"1652"	"41666"	"41666"	"41649"	"64672"	"79612"	NA	NA	NA	NA	NA	"64671"	"lineup1"	"0"	"0"	"0"	"no"	"no"	"1366"
"82"	""	"undefined"	"undefined"	"undefined"	"undefined"	"white"	"no"	"xpyriment"	"legacy"	"legacy"	"0"	"no"	"relative"	"undefined"	"undefined"	"0"	"3"	"3"	"0"	"0"	"0"	"3"	"0"	"0"	"3"	"0"	"0"	"0"	"0"	"0"	"0"	"0"	"0"	"3"	"5"	"0"	"0"	"0"	"0"	"0"	"3"	"213"	"402"	"02/21/18 15:50:24"	"Executes Python code"	"yes"	""	"lineup_liveMEN_W.osexp"	"C:\Users\Laptop10\Desktop\Wednesday 2102"	"no"	"mono"	"no"	"24"	"no"	"black"	"no"	"Continue"	"yes"	"768"	"Not sure"	"no"	"no"	"no"	"legacy"	"3"	"0"	"3"	"0"	"C:/Users/Laptop10/Desktop/Wednesday 2102/subject-69.csv"	"4"	"xpyriment"	"Jazzy James"	"3.1.4"	"0"	"1"	"1"	"7983"	"7983"	"2"	"legacy"	"1024"	"2"	"48000"	"-16"	"experiment"	"69"	"odd"	"legacy"	NA	"79612"	"89454"	NA	NA	NA	"75436"	NA	"1648"	"87725"	"1648"	NA	NA	"1652"	"1652"	"41666"	"41666"	"41649"	"79741"	"89454"	NA	NA	NA	NA	NA	"79741"	"lineup1"	"0"	"0"	"0"	"no"	"no"	"1366"
"83"	""	"undefined"	"undefined"	"undefined"	"undefined"	"white"	"no"	"xpyriment"	"legacy"	"legacy"	"0"	"no"	"relative"	"undefined"	"undefined"	"0"	"4"	"4"	"0"	"0"	"0"	"4"	"0"	"0"	"4"	"0"	"0"	"0"	"0"	"0"	"0"	"0"	"0"	"4"	"6"	"0"	"0"	"0"	"0"	"0"	"4"	"918"	"614"	"02/21/18 15:50:24"	"Executes Python code"	"yes"	""	"lineup_liveMEN_W.osexp"	"C:\Users\Laptop10\Desktop\Wednesday 2102"	"no"	"mono"	"no"	"24"	"no"	"black"	"no"	"Continue"	"yes"	"768"	"No"	"no"	"no"	"no"	"legacy"	"4"	"0"	"4"	"0"	"C:/Users/Laptop10/Desktop/Wednesday 2102/subject-69.csv"	"5"	"xpyriment"	"Jazzy James"	"3.1.4"	"0"	"1"	"1"	"7366"	"7366"	"2"	"legacy"	"1024"	"2"	"48000"	"-16"	"experiment"	"69"	"odd"	"legacy"	NA	"79612"	"99691"	NA	NA	NA	"75436"	NA	"1648"	"96948"	"1648"	NA	NA	"1652"	"1652"	"41666"	"41666"	"41649"	"89582"	"99691"	NA	NA	NA	NA	NA	"89581"	"lineup1"	"0"	"0"	"0"	"no"	"no"	"1366"
"84"	""	"undefined"	"undefined"	"undefined"	"undefined"	"white"	"no"	"xpyriment"	"legacy"	"legacy"	"0"	"60"	"relative"	"undefined"	"undefined"	"0"	"5"	"5"	"0"	"0"	"0"	"5"	"0"	"0"	"5"	"0"	"0"	"0"	"0"	"0"	"0"	"0"	"0"	"5"	"7"	"0"	"0"	"0"	"0"	"0"	"5"	"699"	"688"	"02/21/18 15:50:24"	"Executes Python code"	"yes"	""	"lineup_liveMEN_W.osexp"	"C:\Users\Laptop10\Desktop\Wednesday 2102"	"no"	"mono"	"no"	"24"	"no"	"black"	"no"	"Continue"	"yes"	"768"	"Yes"	"no"	"no"	"no"	"legacy"	"5"	"0"	"5"	"0"	"C:/Users/Laptop10/Desktop/Wednesday 2102/subject-69.csv"	"6"	"xpyriment"	"Jazzy James"	"3.1.4"	"0"	"1"	"1"	"4676"	"4676"	"2"	"legacy"	"1024"	"2"	"48000"	"-16"	"experiment"	"69"	"odd"	"legacy"	NA	"111279"	"107889"	NA	NA	NA	"107890"	NA	"1648"	"104501"	"1648"	NA	NA	"1652"	"1652"	"41666"	"41666"	"41649"	"99824"	"111279"	NA	NA	NA	NA	NA	"99823"	"lineup1"	"0"	"0"	"0"	"no"	"no"	"1366"
"85"	""	"undefined"	"undefined"	"undefined"	"undefined"	"white"	"no"	"xpyriment"	"legacy"	"legacy"	"0"	"no"	"relative"	"undefined"	"undefined"	"1"	"6"	"6"	"1"	"1"	"1"	"6"	"0"	"0"	"6"	"0"	"1"	"1"	"0"	"0"	"1"	"1"	"0"	"6"	"9"	"1"	"1"	"1"	"1"	"1"	"6"	"906"	"389"	"02/21/18 15:50:24"	"Executes Python code"	"yes"	""	"lineup_liveMEN_W.osexp"	"C:\Users\Laptop10\Desktop\Wednesday 2102"	"no"	"mono"	"no"	"24"	"no"	"black"	"no"	"Continue"	"yes"	"768"	"No"	"no"	"no"	"no"	"legacy"	"0"	"0"	"0"	"0"	"C:/Users/Laptop10/Desktop/Wednesday 2102/subject-69.csv"	"1"	"xpyriment"	"Jazzy James"	"3.1.4"	"0"	"1"	"1"	"10471"	"10471"	"2"	"legacy"	"1024"	"2"	"48000"	"-16"	"experiment"	"69"	"odd"	"legacy"	NA	"111279"	"136578"	"113856"	"116615"	NA	"107890"	NA	"1648"	"134820"	"1648"	"116615"	NA	"1652"	"1652"	"124250"	"124250"	"41649"	"124348"	"136578"	"111312"	"113857"	NA	NA	"124232"	"124348"	"lineup1"	"0"	"0"	"0"	"no"	"no"	"1366"
"86"	""	"undefined"	"undefined"	"undefined"	"undefined"	"white"	"no"	"xpyriment"	"legacy"	"legacy"	"0"	"no"	"relative"	"undefined"	"undefined"	"1"	"7"	"7"	"1"	"1"	"1"	"7"	"0"	"0"	"7"	"0"	"1"	"1"	"0"	"0"	"1"	"1"	"0"	"7"	"10"	"1"	"1"	"1"	"1"	"1"	"7"	"345"	"610"	"02/21/18 15:50:24"	"Executes Python code"	"yes"	""	"lineup_liveMEN_W.osexp"	"C:\Users\Laptop10\Desktop\Wednesday 2102"	"no"	"mono"	"no"	"24"	"no"	"black"	"no"	"Continue"	"yes"	"768"	"No"	"no"	"no"	"no"	"legacy"	"1"	"0"	"1"	"0"	"C:/Users/Laptop10/Desktop/Wednesday 2102/subject-69.csv"	"2"	"xpyriment"	"Jazzy James"	"3.1.4"	"0"	"1"	"1"	"5328"	"5328"	"2"	"legacy"	"1024"	"2"	"48000"	"-16"	"experiment"	"69"	"odd"	"legacy"	NA	"111279"	"144780"	"113856"	"116615"	NA	"107890"	NA	"1648"	"142044"	"1648"	"116615"	NA	"1652"	"1652"	"124250"	"124250"	"41649"	"136716"	"144780"	"111312"	"113857"	NA	NA	"124232"	"136715"	"lineup1"	"0"	"0"	"0"	"no"	"no"	"1366"
"87"	""	"undefined"	"undefined"	"undefined"	"undefined"	"white"	"no"	"xpyriment"	"legacy"	"legacy"	"0"	"no"	"relative"	"undefined"	"undefined"	"1"	"8"	"8"	"1"	"1"	"1"	"8"	"0"	"0"	"8"	"0"	"1"	"1"	"0"	"0"	"1"	"1"	"0"	"8"	"11"	"1"	"1"	"1"	"1"	"1"	"8"	"228"	"539"	"02/21/18 15:50:24"	"Executes Python code"	"yes"	""	"lineup_liveMEN_W.osexp"	"C:\Users\Laptop10\Desktop\Wednesday 2102"	"no"	"mono"	"no"	"24"	"no"	"black"	"no"	"Continue"	"yes"	"768"	"No"	"no"	"no"	"no"	"legacy"	"2"	"0"	"2"	"0"	"C:/Users/Laptop10/Desktop/Wednesday 2102/subject-69.csv"	"3"	"xpyriment"	"Jazzy James"	"3.1.4"	"0"	"1"	"1"	"6018"	"6018"	"2"	"legacy"	"1024"	"2"	"48000"	"-16"	"experiment"	"69"	"odd"	"legacy"	NA	"111279"	"152850"	"113856"	"116615"	NA	"107890"	NA	"1648"	"150932"	"1648"	"116615"	NA	"1652"	"1652"	"124250"	"124250"	"41649"	"144913"	"152850"	"111312"	"113857"	NA	NA	"124232"	"144912"	"lineup1"	"0"	"0"	"0"	"no"	"no"	"1366"
"88"	""	"undefined"	"undefined"	"undefined"	"undefined"	"white"	"no"	"xpyriment"	"legacy"	"legacy"	"0"	"no"	"relative"	"undefined"	"undefined"	"1"	"9"	"9"	"1"	"1"	"1"	"9"	"0"	"0"	"9"	"0"	"1"	"1"	"0"	"0"	"1"	"1"	"0"	"9"	"12"	"1"	"1"	"1"	"1"	"1"	"9"	"301"	"661"	"02/21/18 15:50:24"	"Executes Python code"	"yes"	""	"lineup_liveMEN_W.osexp"	"C:\Users\Laptop10\Desktop\Wednesday 2102"	"no"	"mono"	"no"	"24"	"no"	"black"	"no"	"Continue"	"yes"	"768"	"No"	"no"	"no"	"no"	"legacy"	"3"	"0"	"3"	"0"	"C:/Users/Laptop10/Desktop/Wednesday 2102/subject-69.csv"	"4"	"xpyriment"	"Jazzy James"	"3.1.4"	"0"	"1"	"1"	"4317"	"4317"	"2"	"legacy"	"1024"	"2"	"48000"	"-16"	"experiment"	"69"	"odd"	"legacy"	NA	"111279"	"160211"	"113856"	"116615"	NA	"107890"	NA	"1648"	"157300"	"1648"	"116615"	NA	"1652"	"1652"	"124250"	"124250"	"41649"	"152983"	"160211"	"111312"	"113857"	NA	NA	"124232"	"152982"	"lineup1"	"0"	"0"	"0"	"no"	"no"	"1366"
"89"	""	"undefined"	"undefined"	"undefined"	"undefined"	"white"	"no"	"xpyriment"	"legacy"	"legacy"	"0"	"no"	"relative"	"undefined"	"undefined"	"1"	"10"	"10"	"1"	"1"	"1"	"10"	"0"	"0"	"10"	"0"	"1"	"1"	"0"	"0"	"1"	"1"	"0"	"10"	"13"	"1"	"1"	"1"	"1"	"1"	"10"	"394"	"428"	"02/21/18 15:50:24"	"Executes Python code"	"yes"	""	"lineup_liveMEN_W.osexp"	"C:\Users\Laptop10\Desktop\Wednesday 2102"	"no"	"mono"	"no"	"24"	"no"	"black"	"no"	"Continue"	"yes"	"768"	"No"	"no"	"no"	"no"	"legacy"	"4"	"0"	"4"	"0"	"C:/Users/Laptop10/Desktop/Wednesday 2102/subject-69.csv"	"5"	"xpyriment"	"Jazzy James"	"3.1.4"	"0"	"1"	"1"	"5679"	"5679"	"2"	"legacy"	"1024"	"2"	"48000"	"-16"	"experiment"	"69"	"odd"	"legacy"	NA	"111279"	"168764"	"113856"	"116615"	NA	"107890"	NA	"1648"	"166020"	"1648"	"116615"	NA	"1652"	"1652"	"124250"	"124250"	"41649"	"160340"	"168765"	"111312"	"113857"	NA	NA	"124232"	"160339"	"lineup1"	"0"	"0"	"0"	"no"	"no"	"1366"
"90"	""	"undefined"	"undefined"	"undefined"	"undefined"	"white"	"no"	"xpyriment"	"legacy"	"legacy"	"0"	"60"	"relative"	"undefined"	"undefined"	"1"	"11"	"11"	"1"	"1"	"1"	"11"	"0"	"0"	"11"	"0"	"1"	"1"	"0"	"0"	"1"	"1"	"0"	"11"	"14"	"1"	"1"	"1"	"1"	"1"	"11"	"449"	"613"	"02/21/18 15:50:24"	"Executes Python code"	"yes"	""	"lineup_liveMEN_W.osexp"	"C:\Users\Laptop10\Desktop\Wednesday 2102"	"no"	"mono"	"no"	"24"	"no"	"black"	"no"	"Continue"	"yes"	"768"	"Yes"	"no"	"no"	"no"	"legacy"	"5"	"0"	"5"	"0"	"C:/Users/Laptop10/Desktop/Wednesday 2102/subject-69.csv"	"6"	"xpyriment"	"Jazzy James"	"3.1.4"	"0"	"1"	"1"	"5458"	"5458"	"2"	"legacy"	"1024"	"2"	"48000"	"-16"	"experiment"	"69"	"odd"	"legacy"	NA	"179674"	"176780"	"113856"	"116615"	NA	"176781"	NA	"1648"	"174356"	"1648"	"116615"	NA	"1652"	"1652"	"124250"	"124250"	"41649"	"168898"	"179674"	"111312"	"113857"	NA	NA	"124232"	"168897"	"lineup1"	"0"	"0"	"0"	"no"	"no"	"1366"
"91"	""	"undefined"	"undefined"	"undefined"	"undefined"	"white"	"no"	"xpyriment"	"legacy"	"legacy"	"0"	"60"	"relative"	"undefined"	"undefined"	"1"	"11"	"11"	"1"	"1"	"1"	"11"	"0"	"0"	"11"	"0"	"1"	"1"	"0"	"0"	"1"	"1"	"0"	"11"	"14"	"1"	"1"	"1"	"1"	"1"	"11"	"449"	"613"	"02/21/18 15:50:24"	"Executes Python code"	"yes"	""	"lineup_liveMEN_W.osexp"	"C:\Users\Laptop10\Desktop\Wednesday 2102"	"no"	"mono"	"no"	"24"	"no"	"black"	"no"	"Continue"	"yes"	"768"	"Yes"	"Yes"	"One"	"No"	"legacy"	"5"	"0"	"5"	"0"	"C:/Users/Laptop10/Desktop/Wednesday 2102/subject-69.csv"	"6"	"xpyriment"	"Jazzy James"	"3.1.4"	"0"	"1"	"1"	"5458"	"5458"	"2"	"legacy"	"1024"	"2"	"48000"	"-16"	"experiment"	"69"	"odd"	"legacy"	"184142"	"179674"	"176780"	"181686"	"184142"	"194168"	"176781"	NA	"1648"	"174356"	"1648"	"116615"	NA	"1652"	"1652"	"124250"	"124250"	"41649"	"168898"	"194168"	"179710"	"181686"	"187498"	NA	"124232"	"168897"	"lineup1"	"0"	"0"	"0"	"no"	"no"	"1366"
"92"	""	"undefined"	"undefined"	"undefined"	"undefined"	"white"	"no"	"xpyriment"	"legacy"	"legacy"	"0"	"60"	"relative"	"undefined"	"undefined"	"1"	"11"	"11"	"1"	"1"	"1"	"11"	"0"	"0"	"11"	"0"	"1"	"1"	"0"	"0"	"1"	"1"	"0"	"11"	"14"	"1"	"1"	"1"	"1"	"1"	"11"	"449"	"613"	"02/21/18 15:50:24"	"Executes Python code"	"yes"	""	"lineup_liveMEN_W.osexp"	"C:\Users\Laptop10\Desktop\Wednesday 2102"	"no"	"mono"	"no"	"24"	"no"	"black"	"no"	"Continue"	"yes"	"768"	"Yes"	"Yes"	"One"	"No"	"legacy"	"5"	"0"	"5"	"0"	"C:/Users/Laptop10/Desktop/Wednesday 2102/subject-69.csv"	"6"	"xpyriment"	"Jazzy James"	"3.1.4"	"0"	"1"	"1"	"5458"	"5458"	"2"	"legacy"	"1024"	"2"	"48000"	"-16"	"experiment"	"69"	"odd"	"legacy"	"194198"	"179674"	"176780"	"181686"	"184142"	"202549"	"176781"	NA	"1648"	"174356"	"1648"	"116615"	NA	"1652"	"1652"	"124250"	"124250"	"41649"	"168898"	"202549"	"179710"	"181686"	"200804"	NA	"124232"	"168897"	"lineup1"	"0"	"0"	"0"	"no"	"no"	"1366"
"93"	""	"undefined"	"undefined"	"undefined"	"undefined"	"white"	"no"	"xpyriment"	"legacy"	"legacy"	"0"	"60"	"relative"	"undefined"	"undefined"	"1"	"11"	"11"	"1"	"1"	"1"	"11"	"0"	"0"	"11"	"0"	"1"	"1"	"0"	"0"	"1"	"1"	"0"	"11"	"14"	"1"	"1"	"1"	"1"	"1"	"11"	"449"	"613"	"02/21/18 15:50:24"	"Executes Python code"	"yes"	""	"lineup_liveMEN_W.osexp"	"C:\Users\Laptop10\Desktop\Wednesday 2102"	"no"	"mono"	"no"	"24"	"no"	"black"	"no"	"Click to end"	"yes"	"768"	"Yes"	"Yes"	"One"	"No"	"legacy"	"5"	"0"	"5"	"0"	"C:/Users/Laptop10/Desktop/Wednesday 2102/subject-69.csv"	"6"	"xpyriment"	"Jazzy James"	"3.1.4"	"0"	"1"	"1"	"5458"	"5458"	"2"	"legacy"	"1024"	"2"	"48000"	"-16"	"experiment"	"69"	"odd"	"legacy"	"194198"	"179674"	"176780"	"181686"	"184142"	"202549"	"176781"	"202581"	"1648"	"174356"	"1648"	"116615"	NA	"1652"	"1652"	"124250"	"124250"	"41649"	"168898"	"203506"	"179710"	"181686"	"200804"	NA	"124232"	"168897"	"lineup1"	"0"	"0"	"0"	"no"	"no"	"1366"
"94"	""	"undefined"	"undefined"	"undefined"	"undefined"	"white"	"no"	"xpyriment"	"legacy"	"legacy"	"0"	"no"	"relative"	"undefined"	"undefined"	"0"	"0"	"0"	"0"	"0"	"0"	"0"	"0"	"0"	"0"	"0"	"0"	"0"	"0"	"0"	"0"	"0"	"0"	"0"	"2"	"0"	"0"	"0"	"0"	"0"	"0"	"916"	"541"	"02/21/18 15:46:50"	"Executes Python code"	"yes"	""	"lineup_liveMEN_W.osexp"	"C:\Users\Laptop10\Desktop\Wednesday 2102"	"no"	"mono"	"no"	"24"	"no"	"black"	"no"	"Continue"	"yes"	"768"	"No"	"no"	"no"	"no"	"legacy"	"0"	"0"	"0"	"0"	"C:/Users/Laptop10/Desktop/Wednesday 2102/subject-70.csv"	"1"	"xpyriment"	"Jazzy James"	"3.1.4"	"0"	"1"	"1"	"13584"	"13584"	"2"	"legacy"	"1024"	"2"	"48000"	"-16"	"experiment"	"70"	"even"	"legacy"	NA	NA	"71894"	NA	NA	NA	NA	NA	"1640"	"67047"	"1640"	NA	NA	"1644"	"1644"	"53367"	"53367"	"53350"	"53463"	"71894"	NA	NA	NA	NA	NA	"53463"	"lineup1"	"0"	"0"	"0"	"no"	"no"	"1366"
"95"	""	"undefined"	"undefined"	"undefined"	"undefined"	"white"	"no"	"xpyriment"	"legacy"	"legacy"	"0"	"no"	"relative"	"undefined"	"undefined"	"0"	"1"	"1"	"0"	"0"	"0"	"1"	"0"	"0"	"1"	"0"	"0"	"0"	"0"	"0"	"0"	"0"	"0"	"1"	"3"	"0"	"0"	"0"	"0"	"0"	"1"	"386"	"439"	"02/21/18 15:46:50"	"Executes Python code"	"yes"	""	"lineup_liveMEN_W.osexp"	"C:\Users\Laptop10\Desktop\Wednesday 2102"	"no"	"mono"	"no"	"24"	"no"	"black"	"no"	"Continue"	"yes"	"768"	"No"	"no"	"no"	"no"	"legacy"	"1"	"0"	"1"	"0"	"C:/Users/Laptop10/Desktop/Wednesday 2102/subject-70.csv"	"2"	"xpyriment"	"Jazzy James"	"3.1.4"	"0"	"1"	"1"	"5580"	"5580"	"2"	"legacy"	"1024"	"2"	"48000"	"-16"	"experiment"	"70"	"even"	"legacy"	NA	NA	"80843"	NA	NA	NA	NA	NA	"1640"	"77607"	"1640"	NA	NA	"1644"	"1644"	"53367"	"53367"	"53350"	"72027"	"80843"	NA	NA	NA	NA	NA	"72026"	"lineup1"	"0"	"0"	"0"	"no"	"no"	"1366"
"96"	""	"undefined"	"undefined"	"undefined"	"undefined"	"white"	"no"	"xpyriment"	"legacy"	"legacy"	"0"	"no"	"relative"	"undefined"	"undefined"	"0"	"2"	"2"	"0"	"0"	"0"	"2"	"0"	"0"	"2"	"0"	"0"	"0"	"0"	"0"	"0"	"0"	"0"	"2"	"4"	"0"	"0"	"0"	"0"	"0"	"2"	"1046"	"347"	"02/21/18 15:46:50"	"Executes Python code"	"yes"	""	"lineup_liveMEN_W.osexp"	"C:\Users\Laptop10\Desktop\Wednesday 2102"	"no"	"mono"	"no"	"24"	"no"	"black"	"no"	"Continue"	"yes"	"768"	"Not sure"	"no"	"no"	"no"	"legacy"	"2"	"0"	"2"	"0"	"C:/Users/Laptop10/Desktop/Wednesday 2102/subject-70.csv"	"3"	"xpyriment"	"Jazzy James"	"3.1.4"	"0"	"1"	"1"	"13691"	"13691"	"2"	"legacy"	"1024"	"2"	"48000"	"-16"	"experiment"	"70"	"even"	"legacy"	NA	NA	"97085"	NA	NA	NA	NA	NA	"1640"	"94671"	"1640"	NA	NA	"1644"	"1644"	"53367"	"53367"	"53350"	"80980"	"97085"	NA	NA	NA	NA	NA	"80980"	"lineup1"	"0"	"0"	"0"	"no"	"no"	"1366"
"97"	""	"undefined"	"undefined"	"undefined"	"undefined"	"white"	"no"	"xpyriment"	"legacy"	"legacy"	"0"	"no"	"relative"	"undefined"	"undefined"	"0"	"3"	"3"	"0"	"0"	"0"	"3"	"0"	"0"	"3"	"0"	"0"	"0"	"0"	"0"	"0"	"0"	"0"	"3"	"5"	"0"	"0"	"0"	"0"	"0"	"3"	"852"	"385"	"02/21/18 15:46:50"	"Executes Python code"	"yes"	""	"lineup_liveMEN_W.osexp"	"C:\Users\Laptop10\Desktop\Wednesday 2102"	"no"	"mono"	"no"	"24"	"no"	"black"	"no"	"Continue"	"yes"	"768"	"No"	"no"	"no"	"no"	"legacy"	"3"	"0"	"3"	"0"	"C:/Users/Laptop10/Desktop/Wednesday 2102/subject-70.csv"	"4"	"xpyriment"	"Jazzy James"	"3.1.4"	"0"	"1"	"1"	"8291"	"8291"	"2"	"legacy"	"1024"	"2"	"48000"	"-16"	"experiment"	"70"	"even"	"legacy"	NA	NA	"107750"	NA	NA	NA	NA	NA	"1640"	"105510"	"1640"	NA	NA	"1644"	"1644"	"53367"	"53367"	"53350"	"97219"	"107750"	NA	NA	NA	NA	NA	"97218"	"lineup1"	"0"	"0"	"0"	"no"	"no"	"1366"
"98"	""	"undefined"	"undefined"	"undefined"	"undefined"	"white"	"no"	"xpyriment"	"legacy"	"legacy"	"0"	"no"	"relative"	"undefined"	"undefined"	"0"	"4"	"4"	"0"	"0"	"0"	"4"	"0"	"0"	"4"	"0"	"0"	"0"	"0"	"0"	"0"	"0"	"0"	"4"	"6"	"0"	"0"	"0"	"0"	"0"	"4"	"836"	"224"	"02/21/18 15:46:50"	"Executes Python code"	"yes"	""	"lineup_liveMEN_W.osexp"	"C:\Users\Laptop10\Desktop\Wednesday 2102"	"no"	"mono"	"no"	"24"	"no"	"black"	"no"	"Continue"	"yes"	"768"	"Not sure"	"no"	"no"	"no"	"legacy"	"4"	"0"	"4"	"0"	"C:/Users/Laptop10/Desktop/Wednesday 2102/subject-70.csv"	"5"	"xpyriment"	"Jazzy James"	"3.1.4"	"0"	"1"	"1"	"9006"	"9006"	"2"	"legacy"	"1024"	"2"	"48000"	"-16"	"experiment"	"70"	"even"	"legacy"	NA	NA	"119130"	NA	NA	NA	NA	NA	"1640"	"116887"	"1640"	NA	NA	"1644"	"1644"	"53367"	"53367"	"53350"	"107881"	"119130"	NA	NA	NA	NA	NA	"107880"	"lineup1"	"0"	"0"	"0"	"no"	"no"	"1366"
"99"	""	"undefined"	"undefined"	"undefined"	"undefined"	"white"	"no"	"xpyriment"	"legacy"	"legacy"	"0"	"no"	"relative"	"undefined"	"undefined"	"0"	"5"	"5"	"0"	"0"	"0"	"5"	"0"	"0"	"5"	"0"	"0"	"0"	"0"	"0"	"0"	"0"	"0"	"5"	"7"	"0"	"0"	"0"	"0"	"0"	"5"	"626"	"462"	"02/21/18 15:46:50"	"Executes Python code"	"yes"	""	"lineup_liveMEN_W.osexp"	"C:\Users\Laptop10\Desktop\Wednesday 2102"	"no"	"mono"	"no"	"24"	"no"	"black"	"no"	"Continue"	"yes"	"768"	"No"	"no"	"no"	"no"	"legacy"	"5"	"0"	"5"	"0"	"C:/Users/Laptop10/Desktop/Wednesday 2102/subject-70.csv"	"6"	"xpyriment"	"Jazzy James"	"3.1.4"	"0"	"1"	"1"	"7369"	"7369"	"2"	"legacy"	"1024"	"2"	"48000"	"-16"	"experiment"	"70"	"even"	"legacy"	NA	NA	"130306"	NA	NA	NA	NA	NA	"1640"	"126631"	"1640"	NA	NA	"1644"	"1644"	"53367"	"53367"	"53350"	"119262"	"130307"	NA	NA	NA	NA	NA	"119261"	"lineup1"	"0"	"0"	"0"	"no"	"no"	"1366"
"100"	""	"undefined"	"undefined"	"undefined"	"undefined"	"white"	"no"	"xpyriment"	"legacy"	"legacy"	"0"	"no"	"relative"	"undefined"	"undefined"	"0"	"5"	"5"	"0"	"0"	"0"	"5"	"0"	"0"	"5"	"0"	"0"	"0"	"0"	"0"	"0"	"0"	"0"	"5"	"7"	"0"	"0"	"0"	"0"	"0"	"5"	"626"	"462"	"02/21/18 15:46:50"	"Executes Python code"	"yes"	""	"lineup_liveMEN_W.osexp"	"C:\Users\Laptop10\Desktop\Wednesday 2102"	"no"	"mono"	"no"	"24"	"no"	"black"	"no"	"Continue"	"yes"	"768"	"No"	"No"	"no"	"No"	"legacy"	"5"	"0"	"5"	"0"	"C:/Users/Laptop10/Desktop/Wednesday 2102/subject-70.csv"	"6"	"xpyriment"	"Jazzy James"	"3.1.4"	"0"	"1"	"1"	"7369"	"7369"	"2"	"legacy"	"1024"	"2"	"48000"	"-16"	"experiment"	"70"	"even"	"legacy"	"141247"	NA	"130306"	"141247"	NA	"159928"	NA	NA	"1640"	"126631"	"1640"	NA	NA	"1644"	"1644"	"53367"	"53367"	"53350"	"119262"	"159928"	"130341"	NA	"144576"	NA	NA	"119261"	"lineup1"	"0"	"0"	"0"	"no"	"no"	"1366"
"101"	""	"undefined"	"undefined"	"undefined"	"undefined"	"white"	"no"	"xpyriment"	"legacy"	"legacy"	"0"	"no"	"relative"	"undefined"	"undefined"	"0"	"5"	"5"	"0"	"0"	"0"	"5"	"0"	"0"	"5"	"0"	"0"	"0"	"0"	"0"	"0"	"0"	"0"	"5"	"7"	"0"	"0"	"0"	"0"	"0"	"5"	"626"	"462"	"02/21/18 15:46:50"	"Executes Python code"	"yes"	""	"lineup_liveMEN_W.osexp"	"C:\Users\Laptop10\Desktop\Wednesday 2102"	"no"	"mono"	"no"	"24"	"no"	"black"	"no"	"Click to end"	"yes"	"768"	"No"	"No"	"no"	"No"	"legacy"	"5"	"0"	"5"	"0"	"C:/Users/Laptop10/Desktop/Wednesday 2102/subject-70.csv"	"6"	"xpyriment"	"Jazzy James"	"3.1.4"	"0"	"1"	"1"	"7369"	"7369"	"2"	"legacy"	"1024"	"2"	"48000"	"-16"	"experiment"	"70"	"even"	"legacy"	"141247"	NA	"130306"	"141247"	NA	"159928"	NA	"159960"	"1640"	"126631"	"1640"	NA	NA	"1644"	"1644"	"53367"	"53367"	"53350"	"119262"	"160616"	"130341"	NA	"144576"	NA	NA	"119261"	"lineup1"	"0"	"0"	"0"	"no"	"no"	"1366"
"102"	""	"undefined"	"undefined"	"undefined"	"undefined"	"white"	"no"	"xpyriment"	"legacy"	"legacy"	"0"	"no"	"relative"	"undefined"	"undefined"	"0"	"0"	"0"	"0"	"0"	"0"	"0"	"0"	"0"	"0"	"0"	"0"	"0"	"0"	"0"	"0"	"0"	"0"	"0"	"2"	"0"	"0"	"0"	"0"	"0"	"0"	"353"	"345"	"02/21/18 15:32:50"	"Executes Python code"	"yes"	""	"lineup_liveMEN_W.osexp"	"C:\Users\Laptop10\Desktop\Wednesday 2102"	"no"	"mono"	"no"	"24"	"no"	"black"	"no"	"Continue"	"yes"	"768"	"No"	"no"	"no"	"no"	"legacy"	"0"	"0"	"0"	"0"	"C:/Users/Laptop10/Desktop/Wednesday 2102/subject-71.csv"	"1"	"xpyriment"	"Jazzy James"	"3.1.4"	"0"	"1"	"1"	"10670"	"10670"	"2"	"legacy"	"1024"	"2"	"48000"	"-16"	"experiment"	"71"	"odd"	"legacy"	NA	NA	"54368"	NA	NA	NA	NA	NA	"1591"	"50618"	"1592"	NA	NA	"1595"	"1595"	"39852"	"39852"	"39834"	"39948"	"54368"	NA	NA	NA	NA	NA	"39948"	"lineup1"	"0"	"0"	"0"	"no"	"no"	"1366"
"103"	""	"undefined"	"undefined"	"undefined"	"undefined"	"white"	"no"	"xpyriment"	"legacy"	"legacy"	"0"	"no"	"relative"	"undefined"	"undefined"	"0"	"1"	"1"	"0"	"0"	"0"	"1"	"0"	"0"	"1"	"0"	"0"	"0"	"0"	"0"	"0"	"0"	"0"	"1"	"3"	"0"	"0"	"0"	"0"	"0"	"1"	"321"	"627"	"02/21/18 15:32:50"	"Executes Python code"	"yes"	""	"lineup_liveMEN_W.osexp"	"C:\Users\Laptop10\Desktop\Wednesday 2102"	"no"	"mono"	"no"	"24"	"no"	"black"	"no"	"Continue"	"yes"	"768"	"No"	"no"	"no"	"no"	"legacy"	"1"	"0"	"1"	"0"	"C:/Users/Laptop10/Desktop/Wednesday 2102/subject-71.csv"	"2"	"xpyriment"	"Jazzy James"	"3.1.4"	"0"	"1"	"1"	"8119"	"8119"	"2"	"legacy"	"1024"	"2"	"48000"	"-16"	"experiment"	"71"	"odd"	"legacy"	NA	NA	"65216"	NA	NA	NA	NA	NA	"1591"	"62617"	"1592"	NA	NA	"1595"	"1595"	"39852"	"39852"	"39834"	"54498"	"65216"	NA	NA	NA	NA	NA	"54497"	"lineup1"	"0"	"0"	"0"	"no"	"no"	"1366"
"104"	""	"undefined"	"undefined"	"undefined"	"undefined"	"white"	"no"	"xpyriment"	"legacy"	"legacy"	"0"	"no"	"relative"	"undefined"	"undefined"	"0"	"2"	"2"	"0"	"0"	"0"	"2"	"0"	"0"	"2"	"0"	"0"	"0"	"0"	"0"	"0"	"0"	"0"	"2"	"4"	"0"	"0"	"0"	"0"	"0"	"2"	"499"	"279"	"02/21/18 15:32:50"	"Executes Python code"	"yes"	""	"lineup_liveMEN_W.osexp"	"C:\Users\Laptop10\Desktop\Wednesday 2102"	"no"	"mono"	"no"	"24"	"no"	"black"	"no"	"Continue"	"yes"	"768"	"No"	"no"	"no"	"no"	"legacy"	"2"	"0"	"2"	"0"	"C:/Users/Laptop10/Desktop/Wednesday 2102/subject-71.csv"	"3"	"xpyriment"	"Jazzy James"	"3.1.4"	"0"	"1"	"1"	"10109"	"10109"	"2"	"legacy"	"1024"	"2"	"48000"	"-16"	"experiment"	"71"	"odd"	"legacy"	NA	NA	"78973"	NA	NA	NA	NA	NA	"1591"	"75457"	"1592"	NA	NA	"1595"	"1595"	"39852"	"39852"	"39834"	"65348"	"78974"	NA	NA	NA	NA	NA	"65348"	"lineup1"	"0"	"0"	"0"	"no"	"no"	"1366"
"105"	""	"undefined"	"undefined"	"undefined"	"undefined"	"white"	"no"	"xpyriment"	"legacy"	"legacy"	"0"	"no"	"relative"	"undefined"	"undefined"	"0"	"3"	"3"	"0"	"0"	"0"	"3"	"0"	"0"	"3"	"0"	"0"	"0"	"0"	"0"	"0"	"0"	"0"	"3"	"5"	"0"	"0"	"0"	"0"	"0"	"3"	"495"	"542"	"02/21/18 15:32:50"	"Executes Python code"	"yes"	""	"lineup_liveMEN_W.osexp"	"C:\Users\Laptop10\Desktop\Wednesday 2102"	"no"	"mono"	"no"	"24"	"no"	"black"	"no"	"Continue"	"yes"	"768"	"No"	"no"	"no"	"no"	"legacy"	"3"	"0"	"3"	"0"	"C:/Users/Laptop10/Desktop/Wednesday 2102/subject-71.csv"	"4"	"xpyriment"	"Jazzy James"	"3.1.4"	"0"	"1"	"1"	"7683"	"7683"	"2"	"legacy"	"1024"	"2"	"48000"	"-16"	"experiment"	"71"	"odd"	"legacy"	NA	NA	"89516"	NA	NA	NA	NA	NA	"1591"	"86786"	"1592"	NA	NA	"1595"	"1595"	"39852"	"39852"	"39834"	"79102"	"89516"	NA	NA	NA	NA	NA	"79101"	"lineup1"	"0"	"0"	"0"	"no"	"no"	"1366"
"106"	""	"undefined"	"undefined"	"undefined"	"undefined"	"white"	"no"	"xpyriment"	"legacy"	"legacy"	"0"	"no"	"relative"	"undefined"	"undefined"	"0"	"4"	"4"	"0"	"0"	"0"	"4"	"0"	"0"	"4"	"0"	"0"	"0"	"0"	"0"	"0"	"0"	"0"	"4"	"6"	"0"	"0"	"0"	"0"	"0"	"4"	"529"	"472"	"02/21/18 15:32:50"	"Executes Python code"	"yes"	""	"lineup_liveMEN_W.osexp"	"C:\Users\Laptop10\Desktop\Wednesday 2102"	"no"	"mono"	"no"	"24"	"no"	"black"	"no"	"Continue"	"yes"	"768"	"No"	"no"	"no"	"no"	"legacy"	"4"	"0"	"4"	"0"	"C:/Users/Laptop10/Desktop/Wednesday 2102/subject-71.csv"	"5"	"xpyriment"	"Jazzy James"	"3.1.4"	"0"	"1"	"1"	"6282"	"6282"	"2"	"legacy"	"1024"	"2"	"48000"	"-16"	"experiment"	"71"	"odd"	"legacy"	NA	NA	"98192"	NA	NA	NA	NA	NA	"1591"	"95929"	"1592"	NA	NA	"1595"	"1595"	"39852"	"39852"	"39834"	"89647"	"98192"	NA	NA	NA	NA	NA	"89647"	"lineup1"	"0"	"0"	"0"	"no"	"no"	"1366"
"107"	""	"undefined"	"undefined"	"undefined"	"undefined"	"white"	"no"	"xpyriment"	"legacy"	"legacy"	"0"	"60"	"relative"	"undefined"	"undefined"	"0"	"5"	"5"	"0"	"0"	"0"	"5"	"0"	"0"	"5"	"0"	"0"	"0"	"0"	"0"	"0"	"0"	"0"	"5"	"7"	"0"	"0"	"0"	"0"	"0"	"5"	"309"	"632"	"02/21/18 15:32:50"	"Executes Python code"	"yes"	""	"lineup_liveMEN_W.osexp"	"C:\Users\Laptop10\Desktop\Wednesday 2102"	"no"	"mono"	"no"	"24"	"no"	"black"	"no"	"Continue"	"yes"	"768"	"Yes"	"no"	"no"	"no"	"legacy"	"5"	"0"	"5"	"0"	"C:/Users/Laptop10/Desktop/Wednesday 2102/subject-71.csv"	"6"	"xpyriment"	"Jazzy James"	"3.1.4"	"0"	"1"	"1"	"9694"	"9694"	"2"	"legacy"	"1024"	"2"	"48000"	"-16"	"experiment"	"71"	"odd"	"legacy"	NA	"120944"	"111389"	NA	NA	NA	"111389"	NA	"1591"	"108017"	"1592"	NA	NA	"1595"	"1595"	"39852"	"39852"	"39834"	"98323"	"120944"	NA	NA	NA	NA	NA	"98322"	"lineup1"	"0"	"0"	"0"	"no"	"no"	"1366"
"108"	""	"undefined"	"undefined"	"undefined"	"undefined"	"white"	"no"	"xpyriment"	"legacy"	"legacy"	"0"	"60"	"relative"	"undefined"	"undefined"	"0"	"5"	"5"	"0"	"0"	"0"	"5"	"0"	"0"	"5"	"0"	"0"	"0"	"0"	"0"	"0"	"0"	"0"	"5"	"7"	"0"	"0"	"0"	"0"	"0"	"5"	"309"	"632"	"02/21/18 15:32:50"	"Executes Python code"	"yes"	""	"lineup_liveMEN_W.osexp"	"C:\Users\Laptop10\Desktop\Wednesday 2102"	"no"	"mono"	"no"	"24"	"no"	"black"	"no"	"Continue"	"yes"	"768"	"Yes"	"Yes"	"One"	"No"	"legacy"	"5"	"0"	"5"	"0"	"C:/Users/Laptop10/Desktop/Wednesday 2102/subject-71.csv"	"6"	"xpyriment"	"Jazzy James"	"3.1.4"	"0"	"1"	"1"	"9694"	"9694"	"2"	"legacy"	"1024"	"2"	"48000"	"-16"	"experiment"	"71"	"odd"	"legacy"	"131771"	"120944"	"111389"	"126342"	"131771"	"151760"	"111389"	NA	"1591"	"108017"	"1592"	NA	NA	"1595"	"1595"	"39852"	"39852"	"39834"	"98323"	"151760"	"120979"	"126342"	"134490"	NA	NA	"98322"	"lineup1"	"0"	"0"	"0"	"no"	"no"	"1366"
"109"	""	"undefined"	"undefined"	"undefined"	"undefined"	"white"	"no"	"xpyriment"	"legacy"	"legacy"	"0"	"60"	"relative"	"undefined"	"undefined"	"0"	"5"	"5"	"0"	"0"	"0"	"5"	"0"	"0"	"5"	"0"	"0"	"0"	"0"	"0"	"0"	"0"	"0"	"5"	"7"	"0"	"0"	"0"	"0"	"0"	"5"	"309"	"632"	"02/21/18 15:32:50"	"Executes Python code"	"yes"	""	"lineup_liveMEN_W.osexp"	"C:\Users\Laptop10\Desktop\Wednesday 2102"	"no"	"mono"	"no"	"24"	"no"	"black"	"no"	"Click to end"	"yes"	"768"	"Yes"	"Yes"	"One"	"No"	"legacy"	"5"	"0"	"5"	"0"	"C:/Users/Laptop10/Desktop/Wednesday 2102/subject-71.csv"	"6"	"xpyriment"	"Jazzy James"	"3.1.4"	"0"	"1"	"1"	"9694"	"9694"	"2"	"legacy"	"1024"	"2"	"48000"	"-16"	"experiment"	"71"	"odd"	"legacy"	"131771"	"120944"	"111389"	"126342"	"131771"	"151760"	"111389"	"151794"	"1591"	"108017"	"1592"	NA	NA	"1595"	"1595"	"39852"	"39852"	"39834"	"98323"	"154163"	"120979"	"126342"	"134490"	NA	NA	"98322"	"lineup1"	"0"	"0"	"0"	"no"	"no"	"1366"
"110"	""	"undefined"	"undefined"	"undefined"	"undefined"	"white"	"no"	"xpyriment"	"legacy"	"legacy"	"0"	"no"	"relative"	"undefined"	"undefined"	"0"	"0"	"0"	"0"	"0"	"0"	"0"	"0"	"0"	"0"	"0"	"0"	"0"	"0"	"0"	"0"	"0"	"0"	"0"	"2"	"0"	"0"	"0"	"0"	"0"	"0"	"767"	"736"	"02/21/18 15:36:07"	"Executes Python code"	"yes"	""	"lineup_liveMEN_W.osexp"	"C:\Users\Laptop10\Desktop\Wednesday 2102"	"no"	"mono"	"no"	"24"	"no"	"black"	"no"	"Continue"	"yes"	"768"	"No"	"no"	"no"	"no"	"legacy"	"0"	"0"	"0"	"0"	"C:/Users/Laptop10/Desktop/Wednesday 2102/subject-72.csv"	"1"	"xpyriment"	"Jazzy James"	"3.1.4"	"0"	"1"	"1"	"6025"	"6025"	"2"	"legacy"	"1024"	"2"	"48000"	"-16"	"experiment"	"72"	"even"	"legacy"	NA	NA	"54689"	NA	NA	NA	NA	NA	"1595"	"49339"	"1595"	NA	NA	"1598"	"1598"	"43218"	"43218"	"43200"	"43313"	"54689"	NA	NA	NA	NA	NA	"43312"	"lineup1"	"0"	"0"	"0"	"no"	"no"	"1366"
