"_prepare","background","bidi","canvas_backend","clock_backend","color_backend","compensation","confidence_immediate","coordinates","count_TA_sequence_setting","count_TP_sequence_setting","count_admin_check","count_check_TA","count_check_TP","count_check_confidence_imm","count_check_identification","count_check_made_identification","count_check_multiple_identification","count_check_proceeding_identification","count_check_time_of_exposure","count_confidence_imm","count_end_of_experiment","count_experiment","count_gender_lineup_loop","count_gender_randomization_sequence","count_identification_task","count_instructions_after_multiple","count_instructions_after_proceed_identification","count_instructions_before_view","count_lineup_loop","count_lineup_procedure_loop","count_lineup_procedure_sequence","count_lineup_sequence","count_logger","count_made_identification","count_member_randomization_loop","count_member_randomization_sequence","count_multiple_identification","count_proceed_identification","count_repeat_lineup_sequence_identification","count_repeat_lineup_sequence_multiple","count_target_setting","count_target_setting_loop","count_target_setting_sequence","count_time_of_exposure","count_video","datetime","description","disable_garbage_collection","empty_column","experiment_file","experiment_path","font_bold","font_family","font_italic","font_size","font_underline","foreground","form_clicks","fullscreen","gender","height","identification","identification_made","identification_multiple","identification_proceed","keyboard_backend","lecture_time","live_row","live_row_target_setting_loop","logfile","member","member1","member2","member3","member4","member5","member6","mouse_backend","opensesame_codename","opensesame_version","repeat_cycle","round_decimals","sampler_backend","sound_buf_size","sound_channels","sound_freq","sound_sample_size","start","subject_nr","subject_parity","synth_backend","target","target1","target2","time_TA_sequence_setting","time_TP_sequence_setting","time_admin_check","time_check_TA","time_check_TP","time_check_confidence_imm","time_check_identification","time_check_made_identification","time_check_multiple_identification","time_check_proceeding_identification","time_check_time_of_exposure","time_confidence_imm","time_end_of_experiment","time_experiment","time_gender_lineup_loop","time_gender_randomization_sequence","time_identification_task","time_instructions_after_multiple","time_instructions_after_proceed_identification","time_instructions_before_view","time_lineup_loop","time_lineup_procedure_loop","time_lineup_procedure_sequence","time_lineup_sequence","time_logger","time_made_identification","time_member_randomization_loop","time_member_randomization_sequence","time_multiple_identification","time_proceed_identification","time_repeat_lineup_sequence_identification","time_repeat_lineup_sequence_multiple","time_target_setting","time_target_setting_loop","time_target_setting_sequence","time_time_of_exposure","time_video","title","transparent_variables","trial","uniform_coordinates","width"
"","white","no","xpyriment","legacy","legacy","0","NA","relative","NA","NA","NA","NA","NA","NA","NA","NA","NA","NA","0","NA","0","0","0","NA","NA","NA","NA","NA","NA","NA","NA","NA","1","NA","NA","NA","NA","NA","NA","NA","0","0","0","0","NA","10/06/18 12:45:09","Executes Python code","yes","","lineup_videoFB.osexp","C:/Users/standalone/Desktop/FB/fb recordings","no","mono","no","24","no","black","no","yes","NA","768","NA","NA","NA","NA","legacy","no","0","0","C:/Users/standalone/Desktop/FB/fb recordings/subject-91.csv","NA","NA","NA","NA","NA","NA","NA","xpyriment","Jazzy James","3.1.6","0","2","legacy","1024","2","48000","-16","experiment","91","odd","legacy","NA","present","absent","NA","NA","NA","NA","NA","NA","NA","NA","NA","NA","NA","NA","NA","2660","NA","NA","NA","NA","NA","NA","NA","NA","NA","NA","2663","NA","NA","NA","NA","NA","NA","NA","2663","2660","2662","NA","NA","lineup1","no","NA","no","1366"
"","white","no","xpyriment","legacy","legacy","0","NA","relative","0","0","NA","0","0","NA","NA","NA","NA","NA","0","NA","0","0","0","0","NA","NA","NA","NA","NA","0","NA","NA","2","NA","0","0","NA","NA","NA","NA","0","0","0","0","NA","10/06/18 12:45:09","Executes Python code","yes","","lineup_videoFB.osexp","C:/Users/standalone/Desktop/FB/fb recordings","no","mono","no","24","no","black","no","yes","male","768","NA","NA","NA","NA","legacy","no","0","0","C:/Users/standalone/Desktop/FB/fb recordings/subject-91.csv","NA","4","3","6","5","2","1","xpyriment","Jazzy James","3.1.6","0","2","legacy","1024","2","48000","-16","experiment","91","odd","legacy","[target1]","present","absent","NA","2727","NA","NA","2727","NA","NA","NA","NA","NA","NA","NA","NA","2660","2721","2725","NA","NA","NA","NA","NA","NA","NA","NA","2727","NA","2725","2727","NA","NA","NA","NA","2663","2660","2662","NA","NA","lineup1","no","NA","no","1366"
"","white","no","xpyriment","legacy","legacy","0","no","relative","0","0","0","0","0","0","0","0","0","0","0","0","0","0","0","0","0","0","0","0","0","0","0","0","4","0","0","0","0","0","0","0","0","0","0","0","0","10/06/18 12:45:09","Executes Python code","yes","","lineup_videoFB.osexp","C:/Users/standalone/Desktop/FB/fb recordings","no","mono","no","24","no","black","no","yes","male","768","No","no","no","no","legacy","no","0","0","C:/Users/standalone/Desktop/FB/fb recordings/subject-91.csv","[member1]","4","3","6","5","2","1","xpyriment","Jazzy James","3.1.6","0","2","legacy","1024","2","48000","-16","experiment","91","odd","legacy","[target1]","present","absent","NA","2727","NA","NA","2727","NA","92455","NA","NA","NA","NA","NA","NA","2660","2721","2725","86126","NA","NA","3236","2808","2782","2808","3236","92455","NA","2725","2727","NA","NA","NA","NA","2663","2660","2662","NA","37759","lineup1","no","1","no","1366"
"","white","no","xpyriment","legacy","legacy","0","no","relative","0","0","0","0","0","1","1","0","0","0","0","1","0","0","0","0","1","0","0","1","0","0","0","1","5","0","0","0","0","0","0","0","0","0","0","0","1","10/06/18 12:45:09","Executes Python code","yes","","lineup_videoFB.osexp","C:/Users/standalone/Desktop/FB/fb recordings","no","mono","no","24","no","black","no","yes","male","768","No","no","no","no","legacy","no","1","0","C:/Users/standalone/Desktop/FB/fb recordings/subject-91.csv","[member2]","4","3","6","5","2","1","xpyriment","Jazzy James","3.1.6","0","2","legacy","1024","2","48000","-16","experiment","91","odd","legacy","[target1]","present","absent","NA","2727","NA","NA","2727","NA","107124","NA","NA","NA","NA","NA","NA","2660","2721","2725","104759","NA","NA","3236","2808","2782","2808","92809","107124","NA","2725","2727","NA","NA","NA","NA","2663","2660","2662","NA","92809","lineup1","no","2","no","1366"
"","white","no","xpyriment","legacy","legacy","0","80","relative","0","0","0","0","0","2","2","0","0","0","0","2","0","0","0","0","2","0","0","2","0","0","0","2","6","0","0","0","0","0","0","0","0","0","0","0","2","10/06/18 12:45:09","Executes Python code","yes","","lineup_videoFB.osexp","C:/Users/standalone/Desktop/FB/fb recordings","no","mono","no","24","no","black","no","yes","male","768","Yes","no","no","no","legacy","no","2","0","C:/Users/standalone/Desktop/FB/fb recordings/subject-91.csv","[member3]","4","3","6","5","2","1","xpyriment","Jazzy James","3.1.6","0","2","legacy","1024","2","48000","-16","experiment","91","odd","legacy","[target1]","present","absent","NA","2727","NA","NA","2727","149418","136006","NA","NA","NA","NA","136006","NA","2660","2721","2725","133093","NA","NA","3236","2808","2782","2808","107465","149418","NA","2725","2727","NA","NA","NA","NA","2663","2660","2662","NA","107465","lineup1","no","3","no","1366"
"","white","no","xpyriment","legacy","legacy","0","no","relative","0","0","0","0","0","3","3","0","0","0","0","3","0","0","0","0","3","0","0","3","0","0","0","3","7","0","0","0","0","0","0","0","0","0","0","0","3","10/06/18 12:45:09","Executes Python code","yes","","lineup_videoFB.osexp","C:/Users/standalone/Desktop/FB/fb recordings","no","mono","no","24","no","black","no","yes","male","768","No","no","no","no","legacy","no","3","0","C:/Users/standalone/Desktop/FB/fb recordings/subject-91.csv","[member4]","4","3","6","5","2","1","xpyriment","Jazzy James","3.1.6","0","2","legacy","1024","2","48000","-16","experiment","91","odd","legacy","[target1]","present","absent","NA","2727","NA","NA","2727","149418","154552","NA","NA","NA","NA","136006","NA","2660","2721","2725","152075","NA","NA","3236","2808","2782","2808","149768","154552","NA","2725","2727","NA","NA","NA","NA","2663","2660","2662","NA","149768","lineup1","no","4","no","1366"
"","white","no","xpyriment","legacy","legacy","0","no","relative","0","0","0","0","0","4","4","0","0","0","0","4","0","0","0","0","4","0","0","4","0","0","0","4","8","0","0","0","0","0","0","0","0","0","0","0","4","10/06/18 12:45:09","Executes Python code","yes","","lineup_videoFB.osexp","C:/Users/standalone/Desktop/FB/fb recordings","no","mono","no","24","no","black","no","yes","male","768","No","no","no","no","legacy","no","4","0","C:/Users/standalone/Desktop/FB/fb recordings/subject-91.csv","[member5]","4","3","6","5","2","1","xpyriment","Jazzy James","3.1.6","0","2","legacy","1024","2","48000","-16","experiment","91","odd","legacy","[target1]","present","absent","NA","2727","NA","NA","2727","149418","159382","NA","NA","NA","NA","136006","NA","2660","2721","2725","157094","NA","NA","3236","2808","2782","2808","154897","159383","NA","2725","2727","NA","NA","NA","NA","2663","2660","2662","NA","154897","lineup1","no","5","no","1366"
"","white","no","xpyriment","legacy","legacy","0","no","relative","0","0","0","0","0","5","5","0","0","0","0","5","0","0","0","0","5","0","0","5","0","0","0","5","9","0","0","0","0","0","0","0","0","0","0","0","5","10/06/18 12:45:09","Executes Python code","yes","","lineup_videoFB.osexp","C:/Users/standalone/Desktop/FB/fb recordings","no","mono","no","24","no","black","no","yes","male","768","No","no","no","no","legacy","no","5","0","C:/Users/standalone/Desktop/FB/fb recordings/subject-91.csv","[member6]","4","3","6","5","2","1","xpyriment","Jazzy James","3.1.6","0","2","legacy","1024","2","48000","-16","experiment","91","odd","legacy","[target1]","present","absent","NA","2727","NA","NA","2727","149418","169350","NA","NA","NA","NA","136006","NA","2660","2721","2725","166797","NA","NA","3236","2808","2782","2808","159742","169350","NA","2725","2727","NA","NA","NA","NA","2663","2660","2662","NA","159742","lineup1","no","6","no","1366"
"","white","no","xpyriment","legacy","legacy","0","no","relative","0","0","0","0","0","5","5","0","0","0","0","5","0","0","0","0","5","0","0","5","0","0","0","5","9","0","0","0","0","0","0","0","0","0","0","0","5","10/06/18 12:45:09","Executes Python code","yes","","lineup_videoFB.osexp","C:/Users/standalone/Desktop/FB/fb recordings","no","mono","no","24","no","black","no","yes","male","768","No","Yes","One","No","legacy","no","5","0","C:/Users/standalone/Desktop/FB/fb recordings/subject-91.csv","[member6]","4","3","6","5","2","1","xpyriment","Jazzy James","3.1.6","0","2","legacy","1024","2","48000","-16","experiment","91","odd","legacy","[target1]","present","absent","NA","2727","177468","NA","2727","149418","169350","172767","177467","194807","NA","136006","NA","2660","2721","2725","166797","NA","NA","3236","2808","2782","2808","159742","194807","169413","2725","2727","172767","184291","NA","NA","2663","2660","2662","NA","159742","lineup1","no","6","no","1366"
"","white","no","xpyriment","legacy","legacy","0","no","relative","1","1","0","1","1","5","5","0","0","0","0","5","0","0","0","1","5","0","0","5","0","1","0","5","10","0","1","1","0","0","0","0","0","0","0","0","5","10/06/18 12:45:09","Executes Python code","yes","","lineup_videoFB.osexp","C:/Users/standalone/Desktop/FB/fb recordings","no","mono","no","24","no","black","no","yes","female","768","No","Yes","One","No","legacy","no","0","0","C:/Users/standalone/Desktop/FB/fb recordings/subject-91.csv","[member6]","2","3","1","5","4","7","xpyriment","Jazzy James","3.1.6","0","2","legacy","1024","2","48000","-16","experiment","91","odd","legacy","[target2]","present","absent","194875","2727","177468","194875","2727","149418","169350","172767","177467","194807","NA","136006","NA","2660","2721","194873","166797","NA","NA","3236","2808","2782","2808","159742","194875","169413","194873","194875","172767","184291","NA","NA","2663","2660","2662","NA","159742","lineup1","no","6","no","1366"
"","white","no","xpyriment","legacy","legacy","0","no","relative","1","1","1","1","1","6","6","1","1","1","0","6","0","0","0","1","6","1","1","6","1","1","1","6","12","1","1","1","1","1","1","1","0","0","0","0","6","10/06/18 12:45:09","Executes Python code","yes","","lineup_videoFB.osexp","C:/Users/standalone/Desktop/FB/fb recordings","no","mono","no","24","no","black","no","yes","female","768","Not sure","no","no","no","legacy","no","0","0","C:/Users/standalone/Desktop/FB/fb recordings/subject-91.csv","[member1]","2","3","1","5","4","7","xpyriment","Jazzy James","3.1.6","0","2","legacy","1024","2","48000","-16","experiment","91","odd","legacy","[target2]","present","absent","194875","2727","177468","194875","2727","149418","211222","172767","177467","194807","NA","136006","NA","2660","2721","194873","208483","NA","NA","195220","194930","194905","194930","195220","211222","169413","194873","194875","172767","184291","NA","NA","2663","2660","2662","NA","198084","lineup1","no","1","no","1366"
"","white","no","xpyriment","legacy","legacy","0","no","relative","1","1","1","1","1","7","7","1","1","1","0","7","0","0","0","1","7","1","1","7","1","1","1","7","13","1","1","1","1","1","1","1","0","0","0","0","7","10/06/18 12:45:09","Executes Python code","yes","","lineup_videoFB.osexp","C:/Users/standalone/Desktop/FB/fb recordings","no","mono","no","24","no","black","no","yes","female","768","Not sure","no","no","no","legacy","no","1","0","C:/Users/standalone/Desktop/FB/fb recordings/subject-91.csv","[member2]","2","3","1","5","4","7","xpyriment","Jazzy James","3.1.6","0","2","legacy","1024","2","48000","-16","experiment","91","odd","legacy","[target2]","present","absent","194875","2727","177468","194875","2727","149418","220904","172767","177467","194807","NA","136006","NA","2660","2721","194873","218330","NA","NA","195220","194930","194905","194930","211566","220905","169413","194873","194875","172767","184291","NA","NA","2663","2660","2662","NA","211566","lineup1","no","2","no","1366"
"","white","no","xpyriment","legacy","legacy","0","no","relative","1","1","1","1","1","8","8","1","1","1","0","8","0","0","0","1","8","1","1","8","1","1","1","8","14","1","1","1","1","1","1","1","0","0","0","0","8","10/06/18 12:45:09","Executes Python code","yes","","lineup_videoFB.osexp","C:/Users/standalone/Desktop/FB/fb recordings","no","mono","no","24","no","black","no","yes","female","768","Not sure","no","no","no","legacy","no","2","0","C:/Users/standalone/Desktop/FB/fb recordings/subject-91.csv","[member3]","2","3","1","5","4","7","xpyriment","Jazzy James","3.1.6","0","2","legacy","1024","2","48000","-16","experiment","91","odd","legacy","[target2]","present","absent","194875","2727","177468","194875","2727","149418","231979","172767","177467","194807","NA","136006","NA","2660","2721","194873","229243","NA","NA","195220","194930","194905","194930","221253","231980","169413","194873","194875","172767","184291","NA","NA","2663","2660","2662","NA","221253","lineup1","no","3","no","1366"
"","white","no","xpyriment","legacy","legacy","0","no","relative","1","1","1","1","1","9","9","1","1","1","0","9","0","0","0","1","9","1","1","9","1","1","1","9","15","1","1","1","1","1","1","1","0","0","0","0","9","10/06/18 12:45:09","Executes Python code","yes","","lineup_videoFB.osexp","C:/Users/standalone/Desktop/FB/fb recordings","no","mono","no","24","no","black","no","yes","female","768","No","no","no","no","legacy","no","3","0","C:/Users/standalone/Desktop/FB/fb recordings/subject-91.csv","[member4]","2","3","1","5","4","7","xpyriment","Jazzy James","3.1.6","0","2","legacy","1024","2","48000","-16","experiment","91","odd","legacy","[target2]","present","absent","194875","2727","177468","194875","2727","149418","245194","172767","177467","194807","NA","136006","NA","2660","2721","194873","242439","NA","NA","195220","194930","194905","194930","232335","245194","169413","194873","194875","172767","184291","NA","NA","2663","2660","2662","NA","232335","lineup1","no","4","no","1366"
"","white","no","xpyriment","legacy","legacy","0","no","relative","1","1","1","1","1","10","10","1","1","1","0","10","0","0","0","1","10","1","1","10","1","1","1","10","16","1","1","1","1","1","1","1","0","0","0","0","10","10/06/18 12:45:09","Executes Python code","yes","","lineup_videoFB.osexp","C:/Users/standalone/Desktop/FB/fb recordings","no","mono","no","24","no","black","no","yes","female","768","No","no","no","no","legacy","no","4","0","C:/Users/standalone/Desktop/FB/fb recordings/subject-91.csv","[member5]","2","3","1","5","4","7","xpyriment","Jazzy James","3.1.6","0","2","legacy","1024","2","48000","-16","experiment","91","odd","legacy","[target2]","present","absent","194875","2727","177468","194875","2727","149418","249925","172767","177467","194807","NA","136006","NA","2660","2721","194873","247829","NA","NA","195220","194930","194905","194930","245535","249925","169413","194873","194875","172767","184291","NA","NA","2663","2660","2662","NA","245536","lineup1","no","5","no","1366"
"","white","no","xpyriment","legacy","legacy","0","no","relative","1","1","1","1","1","11","11","1","1","1","0","11","0","0","0","1","11","1","1","11","1","1","1","11","17","1","1","1","1","1","1","1","0","0","0","0","11","10/06/18 12:45:09","Executes Python code","yes","","lineup_videoFB.osexp","C:/Users/standalone/Desktop/FB/fb recordings","no","mono","no","24","no","black","no","yes","female","768","No","no","no","no","legacy","no","5","0","C:/Users/standalone/Desktop/FB/fb recordings/subject-91.csv","[member6]","2","3","1","5","4","7","xpyriment","Jazzy James","3.1.6","0","2","legacy","1024","2","48000","-16","experiment","91","odd","legacy","[target2]","present","absent","194875","2727","177468","194875","2727","149418","254326","172767","177467","194807","NA","136006","NA","2660","2721","194873","252258","NA","NA","195220","194930","194905","194930","250262","254326","169413","194873","194875","172767","184291","NA","NA","2663","2660","2662","NA","250263","lineup1","no","6","no","1366"
"","white","no","xpyriment","legacy","legacy","0","no","relative","1","1","2","1","1","12","12","2","2","2","0","12","0","0","0","1","12","2","2","12","2","1","2","12","19","2","1","1","2","2","2","2","0","0","0","0","12","10/06/18 12:45:09","Executes Python code","yes","","lineup_videoFB.osexp","C:/Users/standalone/Desktop/FB/fb recordings","no","mono","no","24","no","black","no","yes","female","768","Not sure","no","no","no","legacy","no","0","0","C:/Users/standalone/Desktop/FB/fb recordings/subject-91.csv","[member1]","2","3","1","5","4","7","xpyriment","Jazzy James","3.1.6","0","2","legacy","1024","2","48000","-16","experiment","91","odd","legacy","[target2]","present","absent","194875","2727","259162","194875","2727","149418","305115","259162","177467","268434","NA","136006","NA","2660","2721","194873","300688","NA","268434","274079","273778","194905","273778","274079","305115","254366","194873","194875","172767","262859","273755","NA","2663","2660","2662","NA","275927","lineup1","no","1","no","1366"
"","white","no","xpyriment","legacy","legacy","0","no","relative","1","1","2","1","1","13","13","2","2","2","0","13","0","0","0","1","13","2","2","13","2","1","2","13","20","2","1","1","2","2","2","2","0","0","0","0","13","10/06/18 12:45:09","Executes Python code","yes","","lineup_videoFB.osexp","C:/Users/standalone/Desktop/FB/fb recordings","no","mono","no","24","no","black","no","yes","female","768","No","no","no","no","legacy","no","1","0","C:/Users/standalone/Desktop/FB/fb recordings/subject-91.csv","[member2]","2","3","1","5","4","7","xpyriment","Jazzy James","3.1.6","0","2","legacy","1024","2","48000","-16","experiment","91","odd","legacy","[target2]","present","absent","194875","2727","259162","194875","2727","149418","311811","259162","177467","268434","NA","136006","NA","2660","2721","194873","309453","NA","268434","274079","273778","194905","273778","305459","311812","254366","194873","194875","172767","262859","273755","NA","2663","2660","2662","NA","305459","lineup1","no","2","no","1366"
"","white","no","xpyriment","legacy","legacy","0","no","relative","1","1","2","1","1","14","14","2","2","2","0","14","0","0","0","1","14","2","2","14","2","1","2","14","21","2","1","1","2","2","2","2","0","0","0","0","14","10/06/18 12:45:09","Executes Python code","yes","","lineup_videoFB.osexp","C:/Users/standalone/Desktop/FB/fb recordings","no","mono","no","24","no","black","no","yes","female","768","No","no","no","no","legacy","no","2","0","C:/Users/standalone/Desktop/FB/fb recordings/subject-91.csv","[member3]","2","3","1","5","4","7","xpyriment","Jazzy James","3.1.6","0","2","legacy","1024","2","48000","-16","experiment","91","odd","legacy","[target2]","present","absent","194875","2727","259162","194875","2727","149418","319076","259162","177467","268434","NA","136006","NA","2660","2721","194873","315812","NA","268434","274079","273778","194905","273778","312207","319076","254366","194873","194875","172767","262859","273755","NA","2663","2660","2662","NA","312207","lineup1","no","3","no","1366"
"","white","no","xpyriment","legacy","legacy","0","no","relative","1","1","2","1","1","15","15","2","2","2","0","15","0","0","0","1","15","2","2","15","2","1","2","15","22","2","1","1","2","2","2","2","0","0","0","0","15","10/06/18 12:45:09","Executes Python code","yes","","lineup_videoFB.osexp","C:/Users/standalone/Desktop/FB/fb recordings","no","mono","no","24","no","black","no","yes","female","768","No","no","no","no","legacy","no","3","0","C:/Users/standalone/Desktop/FB/fb recordings/subject-91.csv","[member4]","2","3","1","5","4","7","xpyriment","Jazzy James","3.1.6","0","2","legacy","1024","2","48000","-16","experiment","91","odd","legacy","[target2]","present","absent","194875","2727","259162","194875","2727","149418","322826","259162","177467","268434","NA","136006","NA","2660","2721","194873","320759","NA","268434","274079","273778","194905","273778","319435","322826","254366","194873","194875","172767","262859","273755","NA","2663","2660","2662","NA","319435","lineup1","no","4","no","1366"
"","white","no","xpyriment","legacy","legacy","0","no","relative","1","1","2","1","1","16","16","2","2","2","0","16","0","0","0","1","16","2","2","16","2","1","2","16","23","2","1","1","2","2","2","2","0","0","0","0","16","10/06/18 12:45:09","Executes Python code","yes","","lineup_videoFB.osexp","C:/Users/standalone/Desktop/FB/fb recordings","no","mono","no","24","no","black","no","yes","female","768","No","no","no","no","legacy","no","4","0","C:/Users/standalone/Desktop/FB/fb recordings/subject-91.csv","[member5]","2","3","1","5","4","7","xpyriment","Jazzy James","3.1.6","0","2","legacy","1024","2","48000","-16","experiment","91","odd","legacy","[target2]","present","absent","194875","2727","259162","194875","2727","149418","327140","259162","177467","268434","NA","136006","NA","2660","2721","194873","324701","NA","268434","274079","273778","194905","273778","323181","327140","254366","194873","194875","172767","262859","273755","NA","2663","2660","2662","NA","323181","lineup1","no","5","no","1366"
"","white","no","xpyriment","legacy","legacy","0","no","relative","1","1","2","1","1","17","17","2","2","2","0","17","0","0","0","1","17","2","2","17","2","1","2","17","24","2","1","1","2","2","2","2","0","0","0","0","17","10/06/18 12:45:09","Executes Python code","yes","","lineup_videoFB.osexp","C:/Users/standalone/Desktop/FB/fb recordings","no","mono","no","24","no","black","no","yes","female","768","No","no","no","no","legacy","no","5","0","C:/Users/standalone/Desktop/FB/fb recordings/subject-91.csv","[member6]","2","3","1","5","4","7","xpyriment","Jazzy James","3.1.6","0","2","legacy","1024","2","48000","-16","experiment","91","odd","legacy","[target2]","present","absent","194875","2727","259162","194875","2727","149418","330378","259162","177467","268434","NA","136006","NA","2660","2721","194873","328679","NA","268434","274079","273778","194905","273778","327491","330378","254366","194873","194875","172767","262859","273755","NA","2663","2660","2662","NA","327491","lineup1","no","6","no","1366"
"","white","no","xpyriment","legacy","legacy","0","30","relative","1","1","3","1","1","18","18","3","3","3","0","18","0","0","0","1","18","3","3","18","3","1","3","18","26","3","1","1","3","3","3","3","0","0","0","0","18","10/06/18 12:45:09","Executes Python code","yes","","lineup_videoFB.osexp","C:/Users/standalone/Desktop/FB/fb recordings","no","mono","no","24","no","black","no","yes","female","768","Yes","no","no","no","legacy","no","0","0","C:/Users/standalone/Desktop/FB/fb recordings/subject-91.csv","[member1]","2","3","1","5","4","7","xpyriment","Jazzy James","3.1.6","0","2","legacy","1024","2","48000","-16","experiment","91","odd","legacy","[target2]","present","absent","194875","2727","333774","194875","2727","351286","345106","333774","177467","337645","NA","345106","NA","2660","2721","194873","342276","NA","337645","340179","339894","194905","339894","340179","351286","330427","194873","194875","172767","335156","339869","NA","2663","2660","2662","NA","341200","lineup1","no","1","no","1366"
"","white","no","xpyriment","legacy","legacy","0","no","relative","1","1","3","1","1","19","19","3","3","3","0","19","0","0","0","1","19","3","3","19","3","1","3","19","27","3","1","1","3","3","3","3","0","0","0","0","19","10/06/18 12:45:09","Executes Python code","yes","","lineup_videoFB.osexp","C:/Users/standalone/Desktop/FB/fb recordings","no","mono","no","24","no","black","no","yes","female","768","No","no","no","no","legacy","no","1","0","C:/Users/standalone/Desktop/FB/fb recordings/subject-91.csv","[member2]","2","3","1","5","4","7","xpyriment","Jazzy James","3.1.6","0","2","legacy","1024","2","48000","-16","experiment","91","odd","legacy","[target2]","present","absent","194875","2727","333774","194875","2727","351286","356090","333774","177467","337645","NA","345106","NA","2660","2721","194873","353459","NA","337645","340179","339894","194905","339894","351635","356091","330427","194873","194875","172767","335156","339869","NA","2663","2660","2662","NA","351636","lineup1","no","2","no","1366"
"","white","no","xpyriment","legacy","legacy","0","30","relative","1","1","3","1","1","20","20","3","3","3","0","20","0","0","0","1","20","3","3","20","3","1","3","20","28","3","1","1","3","3","3","3","0","0","0","0","20","10/06/18 12:45:09","Executes Python code","yes","","lineup_videoFB.osexp","C:/Users/standalone/Desktop/FB/fb recordings","no","mono","no","24","no","black","no","yes","female","768","Yes","no","no","no","legacy","no","2","0","C:/Users/standalone/Desktop/FB/fb recordings/subject-91.csv","[member3]","2","3","1","5","4","7","xpyriment","Jazzy James","3.1.6","0","2","legacy","1024","2","48000","-16","experiment","91","odd","legacy","[target2]","present","absent","194875","2727","333774","194875","2727","371570","363829","333774","177467","337645","NA","363829","NA","2660","2721","194873","359445","NA","337645","340179","339894","194905","339894","356434","371570","330427","194873","194875","172767","335156","339869","NA","2663","2660","2662","NA","356434","lineup1","no","3","no","1366"
"","white","no","xpyriment","legacy","legacy","0","no","relative","1","1","3","1","1","21","21","3","3","3","0","21","0","0","0","1","21","3","3","21","3","1","3","21","29","3","1","1","3","3","3","3","0","0","0","0","21","10/06/18 12:45:09","Executes Python code","yes","","lineup_videoFB.osexp","C:/Users/standalone/Desktop/FB/fb recordings","no","mono","no","24","no","black","no","yes","female","768","No","no","no","no","legacy","no","3","0","C:/Users/standalone/Desktop/FB/fb recordings/subject-91.csv","[member4]","2","3","1","5","4","7","xpyriment","Jazzy James","3.1.6","0","2","legacy","1024","2","48000","-16","experiment","91","odd","legacy","[target2]","present","absent","194875","2727","333774","194875","2727","371570","375571","333774","177467","337645","NA","363829","NA","2660","2721","194873","373125","NA","337645","340179","339894","194905","339894","371900","375571","330427","194873","194875","172767","335156","339869","NA","2663","2660","2662","NA","371900","lineup1","no","4","no","1366"
"","white","no","xpyriment","legacy","legacy","0","no","relative","1","1","3","1","1","22","22","3","3","3","0","22","0","0","0","1","22","3","3","22","3","1","3","22","30","3","1","1","3","3","3","3","0","0","0","0","22","10/06/18 12:45:09","Executes Python code","yes","","lineup_videoFB.osexp","C:/Users/standalone/Desktop/FB/fb recordings","no","mono","no","24","no","black","no","yes","female","768","No","no","no","no","legacy","no","4","0","C:/Users/standalone/Desktop/FB/fb recordings/subject-91.csv","[member5]","2","3","1","5","4","7","xpyriment","Jazzy James","3.1.6","0","2","legacy","1024","2","48000","-16","experiment","91","odd","legacy","[target2]","present","absent","194875","2727","333774","194875","2727","371570","378866","333774","177467","337645","NA","363829","NA","2660","2721","194873","376994","NA","337645","340179","339894","194905","339894","375916","378866","330427","194873","194875","172767","335156","339869","NA","2663","2660","2662","NA","375917","lineup1","no","5","no","1366"
"","white","no","xpyriment","legacy","legacy","0","no","relative","1","1","3","1","1","23","23","3","3","3","0","23","0","0","0","1","23","3","3","23","3","1","3","23","31","3","1","1","3","3","3","3","0","0","0","0","23","10/06/18 12:45:09","Executes Python code","yes","","lineup_videoFB.osexp","C:/Users/standalone/Desktop/FB/fb recordings","no","mono","no","24","no","black","no","yes","female","768","No","no","no","no","legacy","no","5","0","C:/Users/standalone/Desktop/FB/fb recordings/subject-91.csv","[member6]","2","3","1","5","4","7","xpyriment","Jazzy James","3.1.6","0","2","legacy","1024","2","48000","-16","experiment","91","odd","legacy","[target2]","present","absent","194875","2727","333774","194875","2727","371570","382956","333774","177467","337645","NA","363829","NA","2660","2721","194873","380723","NA","337645","340179","339894","194905","339894","379211","382956","330427","194873","194875","172767","335156","339869","NA","2663","2660","2662","NA","379212","lineup1","no","6","no","1366"
"","white","no","xpyriment","legacy","legacy","0","30","relative","1","1","4","1","1","24","24","4","4","4","0","24","0","0","0","1","24","4","4","24","4","1","4","24","33","4","1","1","4","4","4","4","0","0","0","0","24","10/06/18 12:45:09","Executes Python code","yes","","lineup_videoFB.osexp","C:/Users/standalone/Desktop/FB/fb recordings","no","mono","no","24","no","black","no","yes","female","768","Yes","no","no","no","legacy","no","0","0","C:/Users/standalone/Desktop/FB/fb recordings/subject-91.csv","[member1]","2","3","1","5","4","7","xpyriment","Jazzy James","3.1.6","0","2","legacy","1024","2","48000","-16","experiment","91","odd","legacy","[target2]","present","absent","194875","2727","333774","194875","2727","401568","398668","385757","388686","337645","NA","398668","NA","2660","2721","194873","396356","388686","337645","392438","392142","194905","392142","392438","401568","383010","194873","194875","385757","335156","339869","392117","2663","2660","2662","NA","393441","lineup1","no","1","no","1366"
"","white","no","xpyriment","legacy","legacy","0","no","relative","1","1","4","1","1","25","25","4","4","4","0","25","0","0","0","1","25","4","4","25","4","1","4","25","34","4","1","1","4","4","4","4","0","0","0","0","25","10/06/18 12:45:09","Executes Python code","yes","","lineup_videoFB.osexp","C:/Users/standalone/Desktop/FB/fb recordings","no","mono","no","24","no","black","no","yes","female","768","No","no","no","no","legacy","no","1","0","C:/Users/standalone/Desktop/FB/fb recordings/subject-91.csv","[member2]","2","3","1","5","4","7","xpyriment","Jazzy James","3.1.6","0","2","legacy","1024","2","48000","-16","experiment","91","odd","legacy","[target2]","present","absent","194875","2727","333774","194875","2727","401568","405637","385757","388686","337645","NA","398668","NA","2660","2721","194873","402261","388686","337645","392438","392142","194905","392142","401926","405637","383010","194873","194875","385757","335156","339869","392117","2663","2660","2662","NA","401926","lineup1","no","2","no","1366"
"","white","no","xpyriment","legacy","legacy","0","no","relative","1","1","4","1","1","26","26","4","4","4","0","26","0","0","0","1","26","4","4","26","4","1","4","26","35","4","1","1","4","4","4","4","0","0","0","0","26","10/06/18 12:45:09","Executes Python code","yes","","lineup_videoFB.osexp","C:/Users/standalone/Desktop/FB/fb recordings","no","mono","no","24","no","black","no","yes","female","768","No","no","no","no","legacy","no","2","0","C:/Users/standalone/Desktop/FB/fb recordings/subject-91.csv","[member3]","2","3","1","5","4","7","xpyriment","Jazzy James","3.1.6","0","2","legacy","1024","2","48000","-16","experiment","91","odd","legacy","[target2]","present","absent","194875","2727","333774","194875","2727","401568","409926","385757","388686","337645","NA","398668","NA","2660","2721","194873","408017","388686","337645","392438","392142","194905","392142","406019","409926","383010","194873","194875","385757","335156","339869","392117","2663","2660","2662","NA","406019","lineup1","no","3","no","1366"
"","white","no","xpyriment","legacy","legacy","0","no","relative","1","1","4","1","1","27","27","4","4","4","0","27","0","0","0","1","27","4","4","27","4","1","4","27","36","4","1","1","4","4","4","4","0","0","0","0","27","10/06/18 12:45:09","Executes Python code","yes","","lineup_videoFB.osexp","C:/Users/standalone/Desktop/FB/fb recordings","no","mono","no","24","no","black","no","yes","female","768","No","no","no","no","legacy","no","3","0","C:/Users/standalone/Desktop/FB/fb recordings/subject-91.csv","[member4]","2","3","1","5","4","7","xpyriment","Jazzy James","3.1.6","0","2","legacy","1024","2","48000","-16","experiment","91","odd","legacy","[target2]","present","absent","194875","2727","333774","194875","2727","401568","413690","385757","388686","337645","NA","398668","NA","2660","2721","194873","411628","388686","337645","392438","392142","194905","392142","410282","413691","383010","194873","194875","385757","335156","339869","392117","2663","2660","2662","NA","410282","lineup1","no","4","no","1366"
"","white","no","xpyriment","legacy","legacy","0","no","relative","1","1","4","1","1","28","28","4","4","4","0","28","0","0","0","1","28","4","4","28","4","1","4","28","37","4","1","1","4","4","4","4","0","0","0","0","28","10/06/18 12:45:09","Executes Python code","yes","","lineup_videoFB.osexp","C:/Users/standalone/Desktop/FB/fb recordings","no","mono","no","24","no","black","no","yes","female","768","No","no","no","no","legacy","no","4","0","C:/Users/standalone/Desktop/FB/fb recordings/subject-91.csv","[member5]","2","3","1","5","4","7","xpyriment","Jazzy James","3.1.6","0","2","legacy","1024","2","48000","-16","experiment","91","odd","legacy","[target2]","present","absent","194875","2727","333774","194875","2727","401568","416838","385757","388686","337645","NA","398668","NA","2660","2721","194873","414966","388686","337645","392438","392142","194905","392142","414038","416838","383010","194873","194875","385757","335156","339869","392117","2663","2660","2662","NA","414038","lineup1","no","5","no","1366"
"","white","no","xpyriment","legacy","legacy","0","no","relative","1","1","4","1","1","29","29","4","4","4","0","29","0","0","0","1","29","4","4","29","4","1","4","29","38","4","1","1","4","4","4","4","0","0","0","0","29","10/06/18 12:45:09","Executes Python code","yes","","lineup_videoFB.osexp","C:/Users/standalone/Desktop/FB/fb recordings","no","mono","no","24","no","black","no","yes","female","768","No","no","no","no","legacy","no","5","0","C:/Users/standalone/Desktop/FB/fb recordings/subject-91.csv","[member6]","2","3","1","5","4","7","xpyriment","Jazzy James","3.1.6","0","2","legacy","1024","2","48000","-16","experiment","91","odd","legacy","[target2]","present","absent","194875","2727","333774","194875","2727","401568","420081","385757","388686","337645","NA","398668","NA","2660","2721","194873","418211","388686","337645","392438","392142","194905","392142","417198","420081","383010","194873","194875","385757","335156","339869","392117","2663","2660","2662","NA","417198","lineup1","no","6","no","1366"
"","white","no","xpyriment","legacy","legacy","0","no","relative","1","1","4","1","1","29","29","4","4","4","0","29","0","0","0","1","29","4","4","29","4","1","4","29","38","4","1","1","4","4","4","4","0","0","0","0","29","10/06/18 12:45:09","Executes Python code","yes","","lineup_videoFB.osexp","C:/Users/standalone/Desktop/FB/fb recordings","no","mono","no","24","no","black","no","yes","female","768","No","Yes","One","No","legacy","no","5","0","C:/Users/standalone/Desktop/FB/fb recordings/subject-91.csv","[member6]","2","3","1","5","4","7","xpyriment","Jazzy James","3.1.6","0","2","legacy","1024","2","48000","-16","experiment","91","odd","legacy","[target2]","present","absent","194875","2727","425780","194875","2727","401568","420081","423632","425780","434624","NA","398668","NA","2660","2721","194873","418211","388686","337645","392438","392142","194905","392142","417198","434624","420143","194873","194875","423632","427521","339869","392117","2663","2660","2662","NA","417198","lineup1","no","6","no","1366"
"","white","no","xpyriment","legacy","legacy","0","no","relative","1","1","4","1","1","29","29","4","4","4","0","29","0","0","0","1","29","4","4","29","4","1","4","29","38","4","1","1","4","4","4","4","0","0","0","0","29","10/06/18 12:45:09","Executes Python code","yes","","lineup_videoFB.osexp","C:/Users/standalone/Desktop/FB/fb recordings","no","mono","no","24","no","black","no","yes","female","768","No","Yes","One","No","legacy","no","5","0","C:/Users/standalone/Desktop/FB/fb recordings/subject-91.csv","[member6]","2","3","1","5","4","7","xpyriment","Jazzy James","3.1.6","0","2","legacy","1024","2","48000","-16","experiment","91","odd","legacy","[target2]","present","absent","194875","2727","434674","194875","2727","401568","420081","423632","425780","439895","NA","398668","NA","2660","2721","194873","418211","388686","337645","392438","392142","194905","392142","417198","439896","420143","194873","194875","423632","436811","339869","392117","2663","2660","2662","NA","417198","lineup1","no","6","no","1366"
"","white","no","xpyriment","legacy","legacy","0","no","relative","1","1","4","1","1","29","29","4","4","4","0","29","0","0","0","1","29","4","4","29","4","1","4","29","38","4","1","1","4","4","4","4","0","0","0","0","29","10/06/18 12:45:09","Executes Python code","yes","","lineup_videoFB.osexp","C:/Users/standalone/Desktop/FB/fb recordings","no","mono","no","24","no","black","no","yes","female","768","No","Yes","One","No","legacy","no","5","0","C:/Users/standalone/Desktop/FB/fb recordings/subject-91.csv","[member6]","2","3","1","5","4","7","xpyriment","Jazzy James","3.1.6","0","2","legacy","1024","2","48000","-16","experiment","91","odd","legacy","[target2]","present","absent","194875","2727","434674","194875","2727","401568","420081","423632","425780","439895","NA","398668","NA","2660","2721","194873","418211","388686","337645","392438","392142","194905","392142","417198","439963","420143","194873","194875","423632","436811","339869","392117","2663","2660","2662","NA","417198","lineup1","no","6","no","1366"
"","white","no","xpyriment","legacy","legacy","0","no","relative","1","1","4","1","1","29","29","4","4","4","0","29","0","0","0","1","29","4","4","29","4","1","4","29","38","4","1","1","4","4","4","4","0","0","0","0","29","10/06/18 12:45:09","Executes Python code","yes","","lineup_videoFB.osexp","C:/Users/standalone/Desktop/FB/fb recordings","no","mono","no","24","no","black","no","yes","female","768","No","Yes","One","No","legacy","no","5","0","C:/Users/standalone/Desktop/FB/fb recordings/subject-91.csv","[member6]","2","3","1","5","4","7","xpyriment","Jazzy James","3.1.6","0","2","legacy","1024","2","48000","-16","experiment","91","odd","legacy","[target2]","present","absent","194875","2727","434674","194875","2727","401568","420081","423632","425780","439895","NA","398668","NA","2660","2721","194873","418211","388686","337645","392438","392142","194905","392142","417198","440007","420143","194873","194875","423632","436811","339869","392117","2663","2660","2662","NA","417198","lineup1","no","6","no","1366"
"","white","no","xpyriment","legacy","legacy","0","no","relative","1","1","4","1","1","29","29","4","4","4","0","29","0","0","0","1","29","4","4","29","4","1","4","29","38","4","1","1","4","4","4","4","0","0","0","0","29","10/06/18 12:45:09","Executes Python code","yes","","lineup_videoFB.osexp","C:/Users/standalone/Desktop/FB/fb recordings","no","mono","no","24","no","black","no","yes","female","768","No","Yes","One","No","legacy","12am","5","0","C:/Users/standalone/Desktop/FB/fb recordings/subject-91.csv","[member6]","2","3","1","5","4","7","xpyriment","Jazzy James","3.1.6","0","2","legacy","1024","2","48000","-16","experiment","91","odd","legacy","[target2]","present","absent","194875","2727","434674","194875","2727","401568","420081","423632","425780","439895","457909","398668","457909","2660","2721","194873","418211","388686","337645","392438","392142","194905","392142","417198","459556","420143","194873","194875","423632","436811","339869","392117","2663","2660","2662","440074","417198","lineup1","no","6","no","1366"
