"_prepare","background","bidi","canvas_backend","clock_backend","color_backend","compensation","confidence_immediate","coordinates","count_TA_sequence_setting","count_TP_sequence_setting","count_admin_check","count_check_TA","count_check_TP","count_check_confidence_imm","count_check_identification","count_check_made_identification","count_check_multiple_identification","count_check_proceeding_identification","count_check_time_of_exposure","count_confidence_imm","count_end_of_experiment","count_experiment","count_gender_lineup_loop","count_gender_randomization_sequence","count_identification_task","count_instructions_after_multiple","count_instructions_after_proceed_identification","count_instructions_before_view","count_lineup_loop","count_lineup_procedure_loop","count_lineup_procedure_sequence","count_lineup_sequence","count_logger","count_made_identification","count_member_randomization_loop","count_member_randomization_sequence","count_multiple_identification","count_proceed_identification","count_repeat_lineup_sequence_identification","count_repeat_lineup_sequence_multiple","count_target_setting","count_target_setting_loop","count_target_setting_sequence","count_time_of_exposure","count_video","datetime","description","disable_garbage_collection","empty_column","experiment_file","experiment_path","font_bold","font_family","font_italic","font_size","font_underline","foreground","form_clicks","fullscreen","gender","height","identification","identification_made","identification_multiple","identification_proceed","keyboard_backend","lecture_time","live_row","live_row_target_setting_loop","logfile","member","member1","member2","member3","member4","member5","member6","mouse_backend","opensesame_codename","opensesame_version","repeat_cycle","round_decimals","sampler_backend","sound_buf_size","sound_channels","sound_freq","sound_sample_size","start","subject_nr","subject_parity","synth_backend","target","target1","target2","time_TA_sequence_setting","time_TP_sequence_setting","time_admin_check","time_check_TA","time_check_TP","time_check_confidence_imm","time_check_identification","time_check_made_identification","time_check_multiple_identification","time_check_proceeding_identification","time_check_time_of_exposure","time_confidence_imm","time_end_of_experiment","time_experiment","time_gender_lineup_loop","time_gender_randomization_sequence","time_identification_task","time_instructions_after_multiple","time_instructions_after_proceed_identification","time_instructions_before_view","time_lineup_loop","time_lineup_procedure_loop","time_lineup_procedure_sequence","time_lineup_sequence","time_logger","time_made_identification","time_member_randomization_loop","time_member_randomization_sequence","time_multiple_identification","time_proceed_identification","time_repeat_lineup_sequence_identification","time_repeat_lineup_sequence_multiple","time_target_setting","time_target_setting_loop","time_target_setting_sequence","time_time_of_exposure","time_video","title","transparent_variables","trial","uniform_coordinates","width"
"","white","no","xpyriment","legacy","legacy","0","NA","relative","NA","NA","NA","NA","NA","NA","NA","NA","NA","NA","0","NA","0","0","0","NA","NA","NA","NA","NA","NA","NA","NA","NA","1","NA","NA","NA","NA","NA","NA","NA","0","0","0","0","NA","10/06/18 11:46:50","Executes Python code","yes","","lineup_videoFB.osexp","C:/Users/standalone/Desktop/FB/fb recordings","no","mono","no","24","no","black","no","yes","NA","768","NA","NA","NA","NA","legacy","no","0","0","C:/Users/standalone/Desktop/FB/fb recordings/subject-87.csv","NA","NA","NA","NA","NA","NA","NA","xpyriment","Jazzy James","3.1.6","0","2","legacy","1024","2","48000","-16","experiment","87","odd","legacy","NA","present","absent","NA","NA","NA","NA","NA","NA","NA","NA","NA","NA","NA","NA","NA","2552","NA","NA","NA","NA","NA","NA","NA","NA","NA","NA","2554","NA","NA","NA","NA","NA","NA","NA","2554","2552","2554","NA","NA","lineup1","no","NA","no","1366"
"","white","no","xpyriment","legacy","legacy","0","NA","relative","1","1","NA","1","1","NA","NA","NA","NA","NA","0","NA","0","0","0","0","NA","NA","NA","NA","NA","0","NA","NA","3","NA","0","1","NA","NA","NA","NA","0","0","0","0","NA","10/06/18 11:46:50","Executes Python code","yes","","lineup_videoFB.osexp","C:/Users/standalone/Desktop/FB/fb recordings","no","mono","no","24","no","black","no","yes","male","768","NA","NA","NA","NA","legacy","no","0","0","C:/Users/standalone/Desktop/FB/fb recordings/subject-87.csv","NA","5","3","1","6","2","4","xpyriment","Jazzy James","3.1.6","0","2","legacy","1024","2","48000","-16","experiment","87","odd","legacy","[target1]","present","absent","NA","2630","NA","NA","2630","NA","NA","NA","NA","NA","NA","NA","NA","2552","2622","2625","NA","NA","NA","NA","NA","NA","NA","NA","2630","NA","2625","2630","NA","NA","NA","NA","2554","2552","2554","NA","NA","lineup1","no","NA","no","1366"
"","white","no","xpyriment","legacy","legacy","0","NA","relative","1","1","NA","1","1","NA","NA","NA","NA","NA","0","NA","0","0","0","0","NA","NA","NA","NA","NA","0","NA","NA","3","NA","0","1","NA","NA","NA","NA","0","0","0","0","NA","10/06/18 11:46:50","Executes Python code","yes","","lineup_videoFB.osexp","C:/Users/standalone/Desktop/FB/fb recordings","no","mono","no","24","no","black","no","yes","male","768","NA","NA","NA","NA","legacy","no","0","0","C:/Users/standalone/Desktop/FB/fb recordings/subject-87.csv","NA","5","3","1","6","2","4","xpyriment","Jazzy James","3.1.6","0","2","legacy","1024","2","48000","-16","experiment","87","odd","legacy","[target1]","present","absent","NA","2630","NA","NA","2630","NA","NA","NA","NA","NA","NA","NA","NA","2552","2622","2625","NA","NA","NA","NA","NA","NA","NA","NA","2669","NA","2625","2630","NA","NA","NA","NA","2554","2552","2554","NA","NA","lineup1","no","NA","no","1366"
"","white","no","xpyriment","legacy","legacy","0","no","relative","1","1","0","1","1","0","0","0","0","0","0","0","0","0","0","0","0","0","0","0","0","0","0","0","5","0","0","1","0","0","0","0","0","0","0","0","0","10/06/18 11:46:50","Executes Python code","yes","","lineup_videoFB.osexp","C:/Users/standalone/Desktop/FB/fb recordings","no","mono","no","24","no","black","no","yes","male","768","No","no","no","no","legacy","no","0","0","C:/Users/standalone/Desktop/FB/fb recordings/subject-87.csv","[member1]","5","3","1","6","2","4","xpyriment","Jazzy James","3.1.6","0","2","legacy","1024","2","48000","-16","experiment","87","odd","legacy","[target1]","present","absent","NA","2630","NA","NA","2630","NA","48899","NA","NA","NA","NA","NA","NA","2552","2622","2625","45010","NA","NA","3169","2737","2710","2737","3169","48899","NA","2625","2630","NA","NA","NA","NA","2554","2552","2554","NA","35481","lineup1","no","1","no","1366"
"","white","no","xpyriment","legacy","legacy","0","no","relative","1","1","0","1","1","1","1","0","0","0","0","1","0","0","0","0","1","0","0","1","0","0","0","1","6","0","0","1","0","0","0","0","0","0","0","0","1","10/06/18 11:46:50","Executes Python code","yes","","lineup_videoFB.osexp","C:/Users/standalone/Desktop/FB/fb recordings","no","mono","no","24","no","black","no","yes","male","768","No","no","no","no","legacy","no","1","0","C:/Users/standalone/Desktop/FB/fb recordings/subject-87.csv","[member2]","5","3","1","6","2","4","xpyriment","Jazzy James","3.1.6","0","2","legacy","1024","2","48000","-16","experiment","87","odd","legacy","[target1]","present","absent","NA","2630","NA","NA","2630","NA","61361","NA","NA","NA","NA","NA","NA","2552","2622","2625","58791","NA","NA","3169","2737","2710","2737","49257","61361","NA","2625","2630","NA","NA","NA","NA","2554","2552","2554","NA","49257","lineup1","no","2","no","1366"
"","white","no","xpyriment","legacy","legacy","0","no","relative","1","1","0","1","1","2","2","0","0","0","0","2","0","0","0","0","2","0","0","2","0","0","0","2","7","0","0","1","0","0","0","0","0","0","0","0","2","10/06/18 11:46:50","Executes Python code","yes","","lineup_videoFB.osexp","C:/Users/standalone/Desktop/FB/fb recordings","no","mono","no","24","no","black","no","yes","male","768","No","no","no","no","legacy","no","2","0","C:/Users/standalone/Desktop/FB/fb recordings/subject-87.csv","[member3]","5","3","1","6","2","4","xpyriment","Jazzy James","3.1.6","0","2","legacy","1024","2","48000","-16","experiment","87","odd","legacy","[target1]","present","absent","NA","2630","NA","NA","2630","NA","73528","NA","NA","NA","NA","NA","NA","2552","2622","2625","70756","NA","NA","3169","2737","2710","2737","61713","73528","NA","2625","2630","NA","NA","NA","NA","2554","2552","2554","NA","61714","lineup1","no","3","no","1366"
"","white","no","xpyriment","legacy","legacy","0","70","relative","1","1","0","1","1","3","3","0","0","0","0","3","0","0","0","0","3","0","0","3","0","0","0","3","8","0","0","1","0","0","0","0","0","0","0","0","3","10/06/18 11:46:50","Executes Python code","yes","","lineup_videoFB.osexp","C:/Users/standalone/Desktop/FB/fb recordings","no","mono","no","24","no","black","no","yes","male","768","Yes","no","no","no","legacy","no","3","0","C:/Users/standalone/Desktop/FB/fb recordings/subject-87.csv","[member4]","5","3","1","6","2","4","xpyriment","Jazzy James","3.1.6","0","2","legacy","1024","2","48000","-16","experiment","87","odd","legacy","[target1]","present","absent","NA","2630","NA","NA","2630","94819","86966","NA","NA","NA","NA","86966","NA","2552","2622","2625","84579","NA","NA","3169","2737","2710","2737","73884","94819","NA","2625","2630","NA","NA","NA","NA","2554","2552","2554","NA","73884","lineup1","no","4","no","1366"
"","white","no","xpyriment","legacy","legacy","0","no","relative","1","1","0","1","1","4","4","0","0","0","0","4","0","0","0","0","4","0","0","4","0","0","0","4","9","0","0","1","0","0","0","0","0","0","0","0","4","10/06/18 11:46:50","Executes Python code","yes","","lineup_videoFB.osexp","C:/Users/standalone/Desktop/FB/fb recordings","no","mono","no","24","no","black","no","yes","male","768","No","no","no","no","legacy","no","4","0","C:/Users/standalone/Desktop/FB/fb recordings/subject-87.csv","[member5]","5","3","1","6","2","4","xpyriment","Jazzy James","3.1.6","0","2","legacy","1024","2","48000","-16","experiment","87","odd","legacy","[target1]","present","absent","NA","2630","NA","NA","2630","94819","102078","NA","NA","NA","NA","86966","NA","2552","2622","2625","99491","NA","NA","3169","2737","2710","2737","95203","102078","NA","2625","2630","NA","NA","NA","NA","2554","2552","2554","NA","95203","lineup1","no","5","no","1366"
"","white","no","xpyriment","legacy","legacy","0","no","relative","1","1","0","1","1","5","5","0","0","0","0","5","0","0","0","0","5","0","0","5","0","0","0","5","10","0","0","1","0","0","0","0","0","0","0","0","5","10/06/18 11:46:50","Executes Python code","yes","","lineup_videoFB.osexp","C:/Users/standalone/Desktop/FB/fb recordings","no","mono","no","24","no","black","no","yes","male","768","Not sure","no","no","no","legacy","no","5","0","C:/Users/standalone/Desktop/FB/fb recordings/subject-87.csv","[member6]","5","3","1","6","2","4","xpyriment","Jazzy James","3.1.6","0","2","legacy","1024","2","48000","-16","experiment","87","odd","legacy","[target1]","present","absent","NA","2630","NA","NA","2630","94819","116138","NA","NA","NA","NA","86966","NA","2552","2622","2625","112826","NA","NA","3169","2737","2710","2737","102423","116139","NA","2625","2630","NA","NA","NA","NA","2554","2552","2554","NA","102423","lineup1","no","6","no","1366"
"","white","no","xpyriment","legacy","legacy","0","no","relative","1","1","0","1","1","5","5","0","0","0","0","5","0","0","0","0","5","0","0","5","0","0","0","5","10","0","0","1","0","0","0","0","0","0","0","0","5","10/06/18 11:46:50","Executes Python code","yes","","lineup_videoFB.osexp","C:/Users/standalone/Desktop/FB/fb recordings","no","mono","no","24","no","black","no","yes","male","768","Not sure","Yes","One","No","legacy","no","5","0","C:/Users/standalone/Desktop/FB/fb recordings/subject-87.csv","[member6]","5","3","1","6","2","4","xpyriment","Jazzy James","3.1.6","0","2","legacy","1024","2","48000","-16","experiment","87","odd","legacy","[target1]","present","absent","NA","2630","131282","NA","2630","94819","116138","119855","131282","144787","NA","86966","NA","2552","2622","2625","112826","NA","NA","3169","2737","2710","2737","102423","144787","116211","2625","2630","119856","141036","NA","NA","2554","2552","2554","NA","102423","lineup1","no","6","no","1366"
"","white","no","xpyriment","legacy","legacy","0","no","relative","2","2","0","2","2","5","5","0","0","0","0","5","0","0","0","1","5","0","0","5","0","1","0","5","11","0","1","2","0","0","0","0","0","0","0","0","5","10/06/18 11:46:50","Executes Python code","yes","","lineup_videoFB.osexp","C:/Users/standalone/Desktop/FB/fb recordings","no","mono","no","24","no","black","no","yes","female","768","Not sure","Yes","One","No","legacy","no","0","0","C:/Users/standalone/Desktop/FB/fb recordings/subject-87.csv","[member6]","1","7","2","5","3","4","xpyriment","Jazzy James","3.1.6","0","2","legacy","1024","2","48000","-16","experiment","87","odd","legacy","[target2]","present","absent","144857","2630","131282","144857","2630","94819","116138","119855","131282","144787","NA","86966","NA","2552","2622","144854","112826","NA","NA","3169","2737","2710","2737","102423","144857","116211","144854","144856","119856","141036","NA","NA","2554","2552","2554","NA","102423","lineup1","no","6","no","1366"
"","white","no","xpyriment","legacy","legacy","0","no","relative","2","2","1","2","2","6","6","1","1","1","0","6","0","0","0","1","6","1","1","6","1","1","1","6","13","1","1","2","1","1","1","1","0","0","0","0","6","10/06/18 11:46:50","Executes Python code","yes","","lineup_videoFB.osexp","C:/Users/standalone/Desktop/FB/fb recordings","no","mono","no","24","no","black","no","yes","female","768","No","no","no","no","legacy","no","0","0","C:/Users/standalone/Desktop/FB/fb recordings/subject-87.csv","[member1]","1","7","2","5","3","4","xpyriment","Jazzy James","3.1.6","0","2","legacy","1024","2","48000","-16","experiment","87","odd","legacy","[target2]","present","absent","144857","2630","131282","144857","2630","94819","157820","119855","131282","144787","NA","86966","NA","2552","2622","144854","154657","NA","NA","145224","144920","144895","144920","145224","157820","116211","144854","144856","119856","141036","NA","NA","2554","2552","2554","NA","147959","lineup1","no","1","no","1366"
"","white","no","xpyriment","legacy","legacy","0","no","relative","2","2","1","2","2","7","7","1","1","1","0","7","0","0","0","1","7","1","1","7","1","1","1","7","14","1","1","2","1","1","1","1","0","0","0","0","7","10/06/18 11:46:50","Executes Python code","yes","","lineup_videoFB.osexp","C:/Users/standalone/Desktop/FB/fb recordings","no","mono","no","24","no","black","no","yes","female","768","Not sure","no","no","no","legacy","no","1","0","C:/Users/standalone/Desktop/FB/fb recordings/subject-87.csv","[member2]","1","7","2","5","3","4","xpyriment","Jazzy James","3.1.6","0","2","legacy","1024","2","48000","-16","experiment","87","odd","legacy","[target2]","present","absent","144857","2630","131282","144857","2630","94819","179703","119855","131282","144787","NA","86966","NA","2552","2622","144854","174864","NA","NA","145224","144920","144895","144920","158163","179703","116211","144854","144856","119856","141036","NA","NA","2554","2552","2554","NA","158164","lineup1","no","2","no","1366"
"","white","no","xpyriment","legacy","legacy","0","no","relative","2","2","1","2","2","8","8","1","1","1","0","8","0","0","0","1","8","1","1","8","1","1","1","8","15","1","1","2","1","1","1","1","0","0","0","0","8","10/06/18 11:46:50","Executes Python code","yes","","lineup_videoFB.osexp","C:/Users/standalone/Desktop/FB/fb recordings","no","mono","no","24","no","black","no","yes","female","768","No","no","no","no","legacy","no","2","0","C:/Users/standalone/Desktop/FB/fb recordings/subject-87.csv","[member3]","1","7","2","5","3","4","xpyriment","Jazzy James","3.1.6","0","2","legacy","1024","2","48000","-16","experiment","87","odd","legacy","[target2]","present","absent","144857","2630","131282","144857","2630","94819","189106","119855","131282","144787","NA","86966","NA","2552","2622","144854","187089","NA","NA","145224","144920","144895","144920","180055","189106","116211","144854","144856","119856","141036","NA","NA","2554","2552","2554","NA","180056","lineup1","no","3","no","1366"
"","white","no","xpyriment","legacy","legacy","0","no","relative","2","2","1","2","2","9","9","1","1","1","0","9","0","0","0","1","9","1","1","9","1","1","1","9","16","1","1","2","1","1","1","1","0","0","0","0","9","10/06/18 11:46:50","Executes Python code","yes","","lineup_videoFB.osexp","C:/Users/standalone/Desktop/FB/fb recordings","no","mono","no","24","no","black","no","yes","female","768","Not sure","no","no","no","legacy","no","3","0","C:/Users/standalone/Desktop/FB/fb recordings/subject-87.csv","[member4]","1","7","2","5","3","4","xpyriment","Jazzy James","3.1.6","0","2","legacy","1024","2","48000","-16","experiment","87","odd","legacy","[target2]","present","absent","144857","2630","131282","144857","2630","94819","211088","119855","131282","144787","NA","86966","NA","2552","2622","144854","208888","NA","NA","145224","144920","144895","144920","189471","211088","116211","144854","144856","119856","141036","NA","NA","2554","2552","2554","NA","189471","lineup1","no","4","no","1366"
"","white","no","xpyriment","legacy","legacy","0","no","relative","2","2","1","2","2","10","10","1","1","1","0","10","0","0","0","1","10","1","1","10","1","1","1","10","17","1","1","2","1","1","1","1","0","0","0","0","10","10/06/18 11:46:50","Executes Python code","yes","","lineup_videoFB.osexp","C:/Users/standalone/Desktop/FB/fb recordings","no","mono","no","24","no","black","no","yes","female","768","No","no","no","no","legacy","no","4","0","C:/Users/standalone/Desktop/FB/fb recordings/subject-87.csv","[member5]","1","7","2","5","3","4","xpyriment","Jazzy James","3.1.6","0","2","legacy","1024","2","48000","-16","experiment","87","odd","legacy","[target2]","present","absent","144857","2630","131282","144857","2630","94819","222821","119855","131282","144787","NA","86966","NA","2552","2622","144854","220256","NA","NA","145224","144920","144895","144920","211445","222821","116211","144854","144856","119856","141036","NA","NA","2554","2552","2554","NA","211445","lineup1","no","5","no","1366"
"","white","no","xpyriment","legacy","legacy","0","no","relative","2","2","1","2","2","11","11","1","1","1","0","11","0","0","0","1","11","1","1","11","1","1","1","11","18","1","1","2","1","1","1","1","0","0","0","0","11","10/06/18 11:46:50","Executes Python code","yes","","lineup_videoFB.osexp","C:/Users/standalone/Desktop/FB/fb recordings","no","mono","no","24","no","black","no","yes","female","768","No","no","no","no","legacy","no","5","0","C:/Users/standalone/Desktop/FB/fb recordings/subject-87.csv","[member6]","1","7","2","5","3","4","xpyriment","Jazzy James","3.1.6","0","2","legacy","1024","2","48000","-16","experiment","87","odd","legacy","[target2]","present","absent","144857","2630","131282","144857","2630","94819","235469","119855","131282","144787","NA","86966","NA","2552","2622","144854","233280","NA","NA","145224","144920","144895","144920","223168","235469","116211","144854","144856","119856","141036","NA","NA","2554","2552","2554","NA","223168","lineup1","no","6","no","1366"
"","white","no","xpyriment","legacy","legacy","0","no","relative","2","2","1","2","2","11","11","1","1","1","0","11","0","0","0","1","11","1","1","11","1","1","1","11","18","1","1","2","1","1","1","1","0","0","0","0","11","10/06/18 11:46:50","Executes Python code","yes","","lineup_videoFB.osexp","C:/Users/standalone/Desktop/FB/fb recordings","no","mono","no","24","no","black","no","yes","female","768","No","No","no","No","legacy","no","5","0","C:/Users/standalone/Desktop/FB/fb recordings/subject-87.csv","[member6]","1","7","2","5","3","4","xpyriment","Jazzy James","3.1.6","0","2","legacy","1024","2","48000","-16","experiment","87","odd","legacy","[target2]","present","absent","144857","2630","238726","144857","2630","94819","235469","238726","131282","249693","NA","86966","NA","2552","2622","144854","233280","NA","NA","145224","144920","144895","144920","223168","249693","235530","144854","144856","119856","243437","NA","NA","2554","2552","2554","NA","223168","lineup1","no","6","no","1366"
"","white","no","xpyriment","legacy","legacy","0","no","relative","2","2","1","2","2","11","11","1","1","1","0","11","0","0","0","1","11","1","1","11","1","1","1","11","18","1","1","2","1","1","1","1","0","0","0","0","11","10/06/18 11:46:50","Executes Python code","yes","","lineup_videoFB.osexp","C:/Users/standalone/Desktop/FB/fb recordings","no","mono","no","24","no","black","no","yes","female","768","No","No","no","No","legacy","10am","5","0","C:/Users/standalone/Desktop/FB/fb recordings/subject-87.csv","[member6]","1","7","2","5","3","4","xpyriment","Jazzy James","3.1.6","0","2","legacy","1024","2","48000","-16","experiment","87","odd","legacy","[target2]","present","absent","144857","2630","238726","144857","2630","94819","235469","238726","131282","249693","256567","86966","256567","2552","2622","144854","233280","NA","NA","145224","144920","144895","144920","223168","258522","235530","144854","144856","119856","243437","NA","NA","2554","2552","2554","249760","223168","lineup1","no","6","no","1366"
