"_prepare","background","bidi","canvas_backend","clock_backend","color_backend","compensation","confidence_immediate","coordinates","count_TA_sequence_setting","count_TP_sequence_setting","count_admin_check","count_check_TA","count_check_TP","count_check_confidence_imm","count_check_identification","count_check_made_identification","count_check_multiple_identification","count_check_proceeding_identification","count_check_time_of_exposure","count_confidence_imm","count_end_of_experiment","count_experiment","count_gender_lineup_loop","count_gender_randomization_sequence","count_identification_task","count_instructions_after_multiple","count_instructions_after_proceed_identification","count_instructions_before_view","count_lineup_loop","count_lineup_procedure_loop","count_lineup_procedure_sequence","count_lineup_sequence","count_logger","count_made_identification","count_member_randomization_loop","count_member_randomization_sequence","count_multiple_identification","count_proceed_identification","count_repeat_lineup_sequence_identification","count_repeat_lineup_sequence_multiple","count_target_setting","count_target_setting_loop","count_target_setting_sequence","count_time_of_exposure","count_video","datetime","description","disable_garbage_collection","empty_column","experiment_file","experiment_path","font_bold","font_family","font_italic","font_size","font_underline","foreground","form_clicks","fullscreen","gender","height","identification","identification_made","identification_multiple","identification_proceed","keyboard_backend","lecture_time","live_row","live_row_target_setting_loop","logfile","member","member1","member2","member3","member4","member5","member6","mouse_backend","opensesame_codename","opensesame_version","repeat_cycle","round_decimals","sampler_backend","sound_buf_size","sound_channels","sound_freq","sound_sample_size","start","subject_nr","subject_parity","synth_backend","target","target1","target2","time_TA_sequence_setting","time_TP_sequence_setting","time_admin_check","time_check_TA","time_check_TP","time_check_confidence_imm","time_check_identification","time_check_made_identification","time_check_multiple_identification","time_check_proceeding_identification","time_check_time_of_exposure","time_confidence_imm","time_end_of_experiment","time_experiment","time_gender_lineup_loop","time_gender_randomization_sequence","time_identification_task","time_instructions_after_multiple","time_instructions_after_proceed_identification","time_instructions_before_view","time_lineup_loop","time_lineup_procedure_loop","time_lineup_procedure_sequence","time_lineup_sequence","time_logger","time_made_identification","time_member_randomization_loop","time_member_randomization_sequence","time_multiple_identification","time_proceed_identification","time_repeat_lineup_sequence_identification","time_repeat_lineup_sequence_multiple","time_target_setting","time_target_setting_loop","time_target_setting_sequence","time_time_of_exposure","time_video","title","transparent_variables","trial","uniform_coordinates","width"
"","white","no","xpyriment","legacy","legacy","0","NA","relative","NA","NA","NA","NA","NA","NA","NA","NA","NA","NA","0","NA","0","0","0","NA","NA","NA","NA","NA","NA","NA","NA","NA","1","NA","NA","NA","NA","NA","NA","NA","0","0","0","0","NA","10/06/18 11:12:45","Executes Python code","yes","","lineup_videoFB.osexp","C:/Users/standalone/Desktop/FB/fb recordings","no","mono","no","24","no","black","no","yes","NA","768","NA","NA","NA","NA","legacy","no","0","0","C:/Users/standalone/Desktop/FB/fb recordings/subject-72.csv","NA","NA","NA","NA","NA","NA","NA","xpyriment","Jazzy James","3.1.6","0","2","legacy","1024","2","48000","-16","experiment","72","even","legacy","NA","absent","present","NA","NA","NA","NA","NA","NA","NA","NA","NA","NA","NA","NA","NA","2353","NA","NA","NA","NA","NA","NA","NA","NA","NA","NA","2355","NA","NA","NA","NA","NA","NA","NA","2355","2353","2355","NA","NA","lineup1","no","NA","no","1366"
"","white","no","xpyriment","legacy","legacy","0","NA","relative","0","0","NA","0","0","NA","NA","NA","NA","NA","0","NA","0","0","0","0","NA","NA","NA","NA","NA","0","NA","NA","2","NA","0","0","NA","NA","NA","NA","0","0","0","0","NA","10/06/18 11:12:45","Executes Python code","yes","","lineup_videoFB.osexp","C:/Users/standalone/Desktop/FB/fb recordings","no","mono","no","24","no","black","no","yes","male","768","NA","NA","NA","NA","legacy","no","0","0","C:/Users/standalone/Desktop/FB/fb recordings/subject-72.csv","NA","4","5","2","7","1","3","xpyriment","Jazzy James","3.1.6","0","2","legacy","1024","2","48000","-16","experiment","72","even","legacy","[target1]","absent","present","2423","NA","NA","2423","NA","NA","NA","NA","NA","NA","NA","NA","NA","2353","2417","2421","NA","NA","NA","NA","NA","NA","NA","NA","2424","NA","2421","2423","NA","NA","NA","NA","2355","2353","2355","NA","NA","lineup1","no","NA","no","1366"
"","white","no","xpyriment","legacy","legacy","0","no","relative","0","0","0","0","0","0","0","0","0","0","0","0","0","0","0","0","0","0","0","0","0","0","0","0","4","0","0","0","0","0","0","0","0","0","0","0","0","10/06/18 11:12:45","Executes Python code","yes","","lineup_videoFB.osexp","C:/Users/standalone/Desktop/FB/fb recordings","no","mono","no","24","no","black","no","yes","male","768","No","no","no","no","legacy","no","0","0","C:/Users/standalone/Desktop/FB/fb recordings/subject-72.csv","[member1]","4","5","2","7","1","3","xpyriment","Jazzy James","3.1.6","0","2","legacy","1024","2","48000","-16","experiment","72","even","legacy","[target1]","absent","present","2423","NA","NA","2423","NA","NA","91927","NA","NA","NA","NA","NA","NA","2353","2417","2421","87295","NA","NA","2931","2497","2471","2497","2931","91927","NA","2421","2423","NA","NA","NA","NA","2355","2353","2355","NA","51423","lineup1","no","1","no","1366"
"","white","no","xpyriment","legacy","legacy","0","no","relative","0","0","0","0","0","1","1","0","0","0","0","1","0","0","0","0","1","0","0","1","0","0","0","1","5","0","0","0","0","0","0","0","0","0","0","0","1","10/06/18 11:12:45","Executes Python code","yes","","lineup_videoFB.osexp","C:/Users/standalone/Desktop/FB/fb recordings","no","mono","no","24","no","black","no","yes","male","768","No","no","no","no","legacy","no","1","0","C:/Users/standalone/Desktop/FB/fb recordings/subject-72.csv","[member2]","4","5","2","7","1","3","xpyriment","Jazzy James","3.1.6","0","2","legacy","1024","2","48000","-16","experiment","72","even","legacy","[target1]","absent","present","2423","NA","NA","2423","NA","NA","102301","NA","NA","NA","NA","NA","NA","2353","2417","2421","99908","NA","NA","2931","2497","2471","2497","92274","102301","NA","2421","2423","NA","NA","NA","NA","2355","2353","2355","NA","92274","lineup1","no","2","no","1366"
"","white","no","xpyriment","legacy","legacy","0","no","relative","0","0","0","0","0","2","2","0","0","0","0","2","0","0","0","0","2","0","0","2","0","0","0","2","6","0","0","0","0","0","0","0","0","0","0","0","2","10/06/18 11:12:45","Executes Python code","yes","","lineup_videoFB.osexp","C:/Users/standalone/Desktop/FB/fb recordings","no","mono","no","24","no","black","no","yes","male","768","No","no","no","no","legacy","no","2","0","C:/Users/standalone/Desktop/FB/fb recordings/subject-72.csv","[member3]","4","5","2","7","1","3","xpyriment","Jazzy James","3.1.6","0","2","legacy","1024","2","48000","-16","experiment","72","even","legacy","[target1]","absent","present","2423","NA","NA","2423","NA","NA","115234","NA","NA","NA","NA","NA","NA","2353","2417","2421","112670","NA","NA","2931","2497","2471","2497","102642","115234","NA","2421","2423","NA","NA","NA","NA","2355","2353","2355","NA","102642","lineup1","no","3","no","1366"
"","white","no","xpyriment","legacy","legacy","0","no","relative","0","0","0","0","0","3","3","0","0","0","0","3","0","0","0","0","3","0","0","3","0","0","0","3","7","0","0","0","0","0","0","0","0","0","0","0","3","10/06/18 11:12:45","Executes Python code","yes","","lineup_videoFB.osexp","C:/Users/standalone/Desktop/FB/fb recordings","no","mono","no","24","no","black","no","yes","male","768","No","no","no","no","legacy","no","3","0","C:/Users/standalone/Desktop/FB/fb recordings/subject-72.csv","[member4]","4","5","2","7","1","3","xpyriment","Jazzy James","3.1.6","0","2","legacy","1024","2","48000","-16","experiment","72","even","legacy","[target1]","absent","present","2423","NA","NA","2423","NA","NA","131015","NA","NA","NA","NA","NA","NA","2353","2417","2421","128821","NA","NA","2931","2497","2471","2497","115579","131015","NA","2421","2423","NA","NA","NA","NA","2355","2353","2355","NA","115579","lineup1","no","4","no","1366"
"","white","no","xpyriment","legacy","legacy","0","no","relative","0","0","0","0","0","4","4","0","0","0","0","4","0","0","0","0","4","0","0","4","0","0","0","4","8","0","0","0","0","0","0","0","0","0","0","0","4","10/06/18 11:12:45","Executes Python code","yes","","lineup_videoFB.osexp","C:/Users/standalone/Desktop/FB/fb recordings","no","mono","no","24","no","black","no","yes","male","768","No","no","no","no","legacy","no","4","0","C:/Users/standalone/Desktop/FB/fb recordings/subject-72.csv","[member5]","4","5","2","7","1","3","xpyriment","Jazzy James","3.1.6","0","2","legacy","1024","2","48000","-16","experiment","72","even","legacy","[target1]","absent","present","2423","NA","NA","2423","NA","NA","147636","NA","NA","NA","NA","NA","NA","2353","2417","2421","145238","NA","NA","2931","2497","2471","2497","131369","147636","NA","2421","2423","NA","NA","NA","NA","2355","2353","2355","NA","131369","lineup1","no","5","no","1366"
"","white","no","xpyriment","legacy","legacy","0","no","relative","0","0","0","0","0","5","5","0","0","0","0","5","0","0","0","0","5","0","0","5","0","0","0","5","9","0","0","0","0","0","0","0","0","0","0","0","5","10/06/18 11:12:45","Executes Python code","yes","","lineup_videoFB.osexp","C:/Users/standalone/Desktop/FB/fb recordings","no","mono","no","24","no","black","no","yes","male","768","No","no","no","no","legacy","no","5","0","C:/Users/standalone/Desktop/FB/fb recordings/subject-72.csv","[member6]","4","5","2","7","1","3","xpyriment","Jazzy James","3.1.6","0","2","legacy","1024","2","48000","-16","experiment","72","even","legacy","[target1]","absent","present","2423","NA","NA","2423","NA","NA","159629","NA","NA","NA","NA","NA","NA","2353","2417","2421","157614","NA","NA","2931","2497","2471","2497","147969","159629","NA","2421","2423","NA","NA","NA","NA","2355","2353","2355","NA","147969","lineup1","no","6","no","1366"
"","white","no","xpyriment","legacy","legacy","0","no","relative","0","0","0","0","0","5","5","0","0","0","0","5","0","0","0","0","5","0","0","5","0","0","0","5","9","0","0","0","0","0","0","0","0","0","0","0","5","10/06/18 11:12:45","Executes Python code","yes","","lineup_videoFB.osexp","C:/Users/standalone/Desktop/FB/fb recordings","no","mono","no","24","no","black","no","yes","male","768","No","No","no","No","legacy","no","5","0","C:/Users/standalone/Desktop/FB/fb recordings/subject-72.csv","[member6]","4","5","2","7","1","3","xpyriment","Jazzy James","3.1.6","0","2","legacy","1024","2","48000","-16","experiment","72","even","legacy","[target1]","absent","present","2423","NA","163325","2423","NA","NA","159629","163324","NA","193243","NA","NA","NA","2353","2417","2421","157614","NA","NA","2931","2497","2471","2497","147969","193243","159675","2421","2423","NA","165876","NA","NA","2355","2353","2355","NA","147969","lineup1","no","6","no","1366"
"","white","no","xpyriment","legacy","legacy","0","no","relative","2","2","0","2","2","5","5","0","0","0","0","5","0","0","0","1","5","0","0","5","0","1","0","5","11","0","1","2","0","0","0","0","0","0","0","0","5","10/06/18 11:12:45","Executes Python code","yes","","lineup_videoFB.osexp","C:/Users/standalone/Desktop/FB/fb recordings","no","mono","no","24","no","black","no","yes","female","768","No","No","no","No","legacy","no","0","0","C:/Users/standalone/Desktop/FB/fb recordings/subject-72.csv","[member6]","4","6","3","5","1","2","xpyriment","Jazzy James","3.1.6","0","2","legacy","1024","2","48000","-16","experiment","72","even","legacy","[target2]","absent","present","2423","193320","163325","2423","193320","NA","159629","163324","NA","193243","NA","NA","NA","2353","2417","193315","157614","NA","NA","2931","2497","2471","2497","147969","193320","159675","193315","193319","NA","165876","NA","NA","2355","2353","2355","NA","147969","lineup1","no","6","no","1366"
"","white","no","xpyriment","legacy","legacy","0","no","relative","2","2","0","2","2","5","5","0","0","0","0","5","0","0","0","1","5","0","0","5","0","1","0","5","11","0","1","2","0","0","0","0","0","0","0","0","5","10/06/18 11:12:45","Executes Python code","yes","","lineup_videoFB.osexp","C:/Users/standalone/Desktop/FB/fb recordings","no","mono","no","24","no","black","no","yes","female","768","No","No","no","No","legacy","no","0","0","C:/Users/standalone/Desktop/FB/fb recordings/subject-72.csv","[member6]","4","6","3","5","1","2","xpyriment","Jazzy James","3.1.6","0","2","legacy","1024","2","48000","-16","experiment","72","even","legacy","[target2]","absent","present","2423","193320","163325","2423","193320","NA","159629","163324","NA","193243","NA","NA","NA","2353","2417","193315","157614","NA","NA","2931","2497","2471","2497","147969","193356","159675","193315","193319","NA","165876","NA","NA","2355","2353","2355","NA","147969","lineup1","no","6","no","1366"
"","white","no","xpyriment","legacy","legacy","0","no","relative","2","2","1","2","2","6","6","1","1","1","0","6","0","0","0","1","6","1","1","6","1","1","1","6","13","1","1","2","1","1","1","1","0","0","0","0","6","10/06/18 11:12:45","Executes Python code","yes","","lineup_videoFB.osexp","C:/Users/standalone/Desktop/FB/fb recordings","no","mono","no","24","no","black","no","yes","female","768","Not sure","no","no","no","legacy","no","0","0","C:/Users/standalone/Desktop/FB/fb recordings/subject-72.csv","[member1]","4","6","3","5","1","2","xpyriment","Jazzy James","3.1.6","0","2","legacy","1024","2","48000","-16","experiment","72","even","legacy","[target2]","absent","present","2423","193320","163325","2423","193320","NA","219418","163324","NA","193243","NA","NA","NA","2353","2417","193315","217036","NA","NA","193719","193419","193392","193419","193719","219418","159675","193315","193319","NA","165876","NA","NA","2355","2353","2355","NA","196593","lineup1","no","1","no","1366"
"","white","no","xpyriment","legacy","legacy","0","no","relative","2","2","1","2","2","7","7","1","1","1","0","7","0","0","0","1","7","1","1","7","1","1","1","7","14","1","1","2","1","1","1","1","0","0","0","0","7","10/06/18 11:12:45","Executes Python code","yes","","lineup_videoFB.osexp","C:/Users/standalone/Desktop/FB/fb recordings","no","mono","no","24","no","black","no","yes","female","768","Not sure","no","no","no","legacy","no","1","0","C:/Users/standalone/Desktop/FB/fb recordings/subject-72.csv","[member2]","4","6","3","5","1","2","xpyriment","Jazzy James","3.1.6","0","2","legacy","1024","2","48000","-16","experiment","72","even","legacy","[target2]","absent","present","2423","193320","163325","2423","193320","NA","231256","163324","NA","193243","NA","NA","NA","2353","2417","193315","227916","NA","NA","193719","193419","193392","193419","219779","231257","159675","193315","193319","NA","165876","NA","NA","2355","2353","2355","NA","219779","lineup1","no","2","no","1366"
"","white","no","xpyriment","legacy","legacy","0","no","relative","2","2","1","2","2","8","8","1","1","1","0","8","0","0","0","1","8","1","1","8","1","1","1","8","15","1","1","2","1","1","1","1","0","0","0","0","8","10/06/18 11:12:45","Executes Python code","yes","","lineup_videoFB.osexp","C:/Users/standalone/Desktop/FB/fb recordings","no","mono","no","24","no","black","no","yes","female","768","No","no","no","no","legacy","no","2","0","C:/Users/standalone/Desktop/FB/fb recordings/subject-72.csv","[member3]","4","6","3","5","1","2","xpyriment","Jazzy James","3.1.6","0","2","legacy","1024","2","48000","-16","experiment","72","even","legacy","[target2]","absent","present","2423","193320","163325","2423","193320","NA","245154","163324","NA","193243","NA","NA","NA","2353","2417","193315","242406","NA","NA","193719","193419","193392","193419","231600","245154","159675","193315","193319","NA","165876","NA","NA","2355","2353","2355","NA","231600","lineup1","no","3","no","1366"
"","white","no","xpyriment","legacy","legacy","0","no","relative","2","2","1","2","2","9","9","1","1","1","0","9","0","0","0","1","9","1","1","9","1","1","1","9","16","1","1","2","1","1","1","1","0","0","0","0","9","10/06/18 11:12:45","Executes Python code","yes","","lineup_videoFB.osexp","C:/Users/standalone/Desktop/FB/fb recordings","no","mono","no","24","no","black","no","yes","female","768","No","no","no","no","legacy","no","3","0","C:/Users/standalone/Desktop/FB/fb recordings/subject-72.csv","[member4]","4","6","3","5","1","2","xpyriment","Jazzy James","3.1.6","0","2","legacy","1024","2","48000","-16","experiment","72","even","legacy","[target2]","absent","present","2423","193320","163325","2423","193320","NA","261227","163324","NA","193243","NA","NA","NA","2353","2417","193315","259020","NA","NA","193719","193419","193392","193419","245537","261227","159675","193315","193319","NA","165876","NA","NA","2355","2353","2355","NA","245538","lineup1","no","4","no","1366"
"","white","no","xpyriment","legacy","legacy","0","no","relative","2","2","1","2","2","10","10","1","1","1","0","10","0","0","0","1","10","1","1","10","1","1","1","10","17","1","1","2","1","1","1","1","0","0","0","0","10","10/06/18 11:12:45","Executes Python code","yes","","lineup_videoFB.osexp","C:/Users/standalone/Desktop/FB/fb recordings","no","mono","no","24","no","black","no","yes","female","768","Not sure","no","no","no","legacy","no","4","0","C:/Users/standalone/Desktop/FB/fb recordings/subject-72.csv","[member5]","4","6","3","5","1","2","xpyriment","Jazzy James","3.1.6","0","2","legacy","1024","2","48000","-16","experiment","72","even","legacy","[target2]","absent","present","2423","193320","163325","2423","193320","NA","276802","163324","NA","193243","NA","NA","NA","2353","2417","193315","274597","NA","NA","193719","193419","193392","193419","261587","276802","159675","193315","193319","NA","165876","NA","NA","2355","2353","2355","NA","261587","lineup1","no","5","no","1366"
"","white","no","xpyriment","legacy","legacy","0","no","relative","2","2","1","2","2","11","11","1","1","1","0","11","0","0","0","1","11","1","1","11","1","1","1","11","18","1","1","2","1","1","1","1","0","0","0","0","11","10/06/18 11:12:45","Executes Python code","yes","","lineup_videoFB.osexp","C:/Users/standalone/Desktop/FB/fb recordings","no","mono","no","24","no","black","no","yes","female","768","Not sure","no","no","no","legacy","no","5","0","C:/Users/standalone/Desktop/FB/fb recordings/subject-72.csv","[member6]","4","6","3","5","1","2","xpyriment","Jazzy James","3.1.6","0","2","legacy","1024","2","48000","-16","experiment","72","even","legacy","[target2]","absent","present","2423","193320","163325","2423","193320","NA","291646","163324","NA","193243","NA","NA","NA","2353","2417","193315","289440","NA","NA","193719","193419","193392","193419","277159","291646","159675","193315","193319","NA","165876","NA","NA","2355","2353","2355","NA","277159","lineup1","no","6","no","1366"
"","white","no","xpyriment","legacy","legacy","0","no","relative","2","2","1","2","2","11","11","1","1","1","0","11","0","0","0","1","11","1","1","11","1","1","1","11","18","1","1","2","1","1","1","1","0","0","0","0","11","10/06/18 11:12:45","Executes Python code","yes","","lineup_videoFB.osexp","C:/Users/standalone/Desktop/FB/fb recordings","no","mono","no","24","no","black","no","yes","female","768","Not sure","No","no","No","legacy","no","5","0","C:/Users/standalone/Desktop/FB/fb recordings/subject-72.csv","[member6]","4","6","3","5","1","2","xpyriment","Jazzy James","3.1.6","0","2","legacy","1024","2","48000","-16","experiment","72","even","legacy","[target2]","absent","present","2423","193320","296651","2423","193320","NA","291646","296651","NA","376141","NA","NA","NA","2353","2417","193315","289440","NA","NA","193719","193419","193392","193419","277159","376141","291698","193315","193319","NA","300988","NA","NA","2355","2353","2355","NA","277159","lineup1","no","6","no","1366"
"","white","no","xpyriment","legacy","legacy","0","no","relative","2","2","1","2","2","11","11","1","1","1","0","11","0","0","0","1","11","1","1","11","1","1","1","11","18","1","1","2","1","1","1","1","0","0","0","0","11","10/06/18 11:12:45","Executes Python code","yes","","lineup_videoFB.osexp","C:/Users/standalone/Desktop/FB/fb recordings","no","mono","no","24","no","black","no","yes","female","768","Not sure","No","no","No","legacy","10am","5","0","C:/Users/standalone/Desktop/FB/fb recordings/subject-72.csv","[member6]","4","6","3","5","1","2","xpyriment","Jazzy James","3.1.6","0","2","legacy","1024","2","48000","-16","experiment","72","even","legacy","[target2]","absent","present","2423","193320","296651","2423","193320","NA","291646","296651","NA","376141","381835","NA","381835","2353","2417","193315","289440","NA","NA","193719","193419","193392","193419","277159","383102","291698","193315","193319","NA","300988","NA","NA","2355","2353","2355","376229","277159","lineup1","no","6","no","1366"
